section id,recording id,timestamp [ns],gyro x [deg/s],gyro y [deg/s],gyro z [deg/s],acceleration x [g],acceleration y [g],acceleration z [g],roll [deg],pitch [deg],yaw [deg],quaternion w,quaternion x,quaternion y,quaternion z
560d2020-4620-4cd0-a39f-1f740350b859,7ade7517-e2d0-4374-9c1a-e3565540cf30,1761215859332861267,-0.846863,-5.466461,-2.256393,-0.022461,-0.041016,1.04834,1.2889888771999582,-3.23328257075945,77.58202133936172,0.7792755365371704,-0.02903209626674652,-0.008909306488931179,0.6259452104568481
560d2020-4620-4cd0-a39f-1f740350b859,7ade7517-e2d0-4374-9c1a-e3565540cf30,1761215859343562267,-0.787735,-4.552841,-2.378464,-0.005859,-0.047363,1.083008,1.2400671940992485,-3.2337722096020034,77.55027246734505,0.7794449925422668,-0.028770752251148224,-0.009236701764166355,0.6257414817810059
560d2020-4620-4cd0-a39f-1f740350b859,7ade7517-e2d0-4374-9c1a-e3565540cf30,1761215859354263267,0.679016,-3.452301,-2.68364,-0.007812,-0.071289,1.077637,1.1991857711444767,-3.226869713483923,77.48460012319221,0.779801070690155,-0.02850601077079773,-0.009460718370974064,0.6253064870834351
560d2020-4620-4cd0-a39f-1f740350b859,7ade7517-e2d0-4374-9c1a-e3565540cf30,1761215859364931267,3.852844,-2.353668,-3.110886,-0.004395,-0.055176,1.06543,1.1442145817386422,-3.179924847049199,77.38840123280859,0.7803274989128113,-0.027894752100110054,-0.0095550287514925,0.6246755719184875
560d2020-4620-4cd0-a39f-1f740350b859,7ade7517-e2d0-4374-9c1a-e3565540cf30,1761215859375599267,4.827499,-2.721786,-3.477097,-0.019043,-0.067871,1.064941,1.1193480106391107,-3.1388935186747196,77.3690957298315,0.7804361581802368,-0.027481507509946823,-0.009495901875197887,0.6245590448379517
560d2020-4620-4cd0-a39f-1f740350b859,7ade7517-e2d0-4374-9c1a-e3565540cf30,1761215859386267267,5.500793,-3.269196,-3.904343,-0.013184,-0.056641,1.056152,1.0873885068107674,-3.0929591162988714,77.33124907614484,0.7806458473205566,-0.026997730135917664,-0.009454125538468361,0.6243186593055725
560d2020-4620-4cd0-a39f-1f740350b859,7ade7517-e2d0-4374-9c1a-e3565540cf30,1761215859396897267,4.94957,-3.881454,-3.904343,-0.01709,-0.039551,1.013184,1.0514269386777415,-3.043248536033063,77.26821318706871,0.7809927463531494,-0.026468468829989433,-0.009413545951247215,0.6239079236984253
560d2020-4620-4cd0-a39f-1f740350b859,7ade7517-e2d0-4374-9c1a-e3565540cf30,1761215859407527267,4.524231,-4.917145,-3.599167,-0.019531,-0.029297,1.005859,1.0057616756825298,-2.9977274656602626,77.27370602179805,0.7809650301933289,-0.02590925060212612,-0.009478021413087845,0.6239651441574097
560d2020-4620-4cd0-a39f-1f740350b859,7ade7517-e2d0-4374-9c1a-e3565540cf30,1761215859418157267,3.242493,-5.954742,-3.538132,-0.013184,-0.039062,1.008789,0.9545673407896612,-2.9582164239689517,77.2581597691046,0.7810505628585815,-0.025362610816955566,-0.009608215652406216,0.6238784790039062
560d2020-4620-4cd0-a39f-1f740350b859,7ade7517-e2d0-4374-9c1a-e3565540cf30,1761215859426170267,1.472473,-6.626129,-2.439499,-0.016602,-0.043457,1.010742,0.8408228201644051,-2.912309232844927,77.15175858053315,0.7816258072853088,-0.024439925327897072,-0.010110734030604362,0.6231865882873535
560d2020-4620-4cd0-a39f-1f740350b859,7ade7517-e2d0-4374-9c1a-e3565540cf30,1761215859434181267,0.862122,-6.748199,-2.256393,-0.02832,-0.050781,0.996094,0.7825804163858272,-2.903629262145795,77.113618944935,0.7818291187286377,-0.024067472666502,-0.01045276690274477,0.6229403018951416
560d2020-4620-4cd0-a39f-1f740350b859,7ade7517-e2d0-4374-9c1a-e3565540cf30,1761215859442192267,0.801086,-6.259918,-1.523972,-0.018555,-0.036133,0.997559,0.7288207148871787,-2.8914994972126578,77.10193482254869,0.7818893194198608,-0.02369358204305172,-0.010751171037554741,0.6228740215301514
560d2020-4620-4cd0-a39f-1f740350b859,7ade7517-e2d0-4374-9c1a-e3565540cf30,1761215859450203267,0.434875,-5.466461,-0.79155,-0.020996,-0.047852,0.997559,0.6841918204448393,-2.884178947517303,77.08330306885516,0.7819873690605164,-0.023402847349643707,-0.011012072674930096,0.6227574348449707
560d2020-4620-4cd0-a39f-1f740350b859,7ade7517-e2d0-4374-9c1a-e3565540cf30,1761215859460859267,0.127792,-5.224228,-0.669479,-0.006836,-0.051758,0.988281,0.6380376158325172,-2.8824541204136667,77.04675777020786,0.7821816802024841,-0.023143857717514038,-0.011310276575386524,0.6225176453590393
560d2020-4620-4cd0-a39f-1f740350b859,7ade7517-e2d0-4374-9c1a-e3565540cf30,1761215859471515267,-0.602722,-4.306793,-0.91362,-0.004883,-0.053711,0.978516,0.5928075558441472,-2.8846431053270796,77.06252164156122,0.7820912003517151,-0.02291148155927658,-0.011634055525064468,0.6226339936256409
560d2020-4620-4cd0-a39f-1f740350b859,7ade7517-e2d0-4374-9c1a-e3565540cf30,1761215859482171267,-1.520157,-4.06456,-1.401901,-0.00293,-0.037598,0.992187,0.5543650338916117,-2.889934772634013,77.05226205586503,0.7821422219276428,-0.022739779204130173,-0.011923152022063732,0.6225706934928894
560d2020-4620-4cd0-a39f-1f740350b859,7ade7517-e2d0-4374-9c1a-e3565540cf30,1761215859492866267,-2.069473,-4.369736,-1.646042,0.0,-0.035645,1.041016,0.5086803289611445,-2.9018710831479844,76.99933936726777,0.7824230790138245,-0.022578708827495575,-0.012289413250982761,0.6222164034843445
560d2020-4620-4cd0-a39f-1f740350b859,7ade7517-e2d0-4374-9c1a-e3565540cf30,1761215859503563267,-1.396179,-4.611969,-2.317429,0.003906,-0.039062,1.045898,0.4635162269858685,-2.9106296192687373,76.97140415737408,0.7825685143470764,-0.022396346554160118,-0.012639900669455528,0.6220330595970154
560d2020-4620-4cd0-a39f-1f740350b859,7ade7517-e2d0-4374-9c1a-e3565540cf30,1761215859514260267,-0.236511,-4.428864,-2.500534,-0.01416,-0.045898,1.036621,0.4178688016545355,-2.909873728215983,76.9856931367966,0.7824859619140625,-0.02214178256690502,-0.012950291857123375,0.6221396327018738
560d2020-4620-4cd0-a39f-1f740350b859,7ade7517-e2d0-4374-9c1a-e3565540cf30,1761215859522641267,0.923157,-5.161285,-1.890182,-0.021484,-0.035156,1.023438,0.34376805927654674,-2.8857762733040877,76.91464640771426,0.7828667759895325,-0.021583201363682747,-0.013312047347426414,0.6216723322868347
560d2020-4620-4cd0-a39f-1f740350b859,7ade7517-e2d0-4374-9c1a-e3565540cf30,1761215859531023267,1.04332,-4.915237,-0.91362,-0.024902,-0.037109,1.033691,0.30606799285908765,-2.869936099015088,76.88483148897107,0.7830265760421753,-0.02127397432923317,-0.013478120788931847,0.6214781999588013
560d2020-4620-4cd0-a39f-1f740350b859,7ade7517-e2d0-4374-9c1a-e3565540cf30,1761215859539405267,1.228333,-4.306793,0.246048,-0.030762,-0.03418,1.029785,0.2755078058238835,-2.854548486824813,76.87520148671639,0.783077597618103,-0.021004240959882736,-0.013601711951196194,0.6214203238487244
560d2020-4620-4cd0-a39f-1f740350b859,7ade7517-e2d0-4374-9c1a-e3565540cf30,1761215859547787267,1.960754,-4.184723,1.344681,-0.021484,-0.036621,1.039062,0.24785577061387337,-2.8342873125828483,76.86939056282476,0.7831090092658997,-0.020716533064842224,-0.01367973443120718,0.6213887333869934
560d2020-4620-4cd0-a39f-1f740350b859,7ade7517-e2d0-4374-9c1a-e3565540cf30,1761215859555382267,2.019882,-4.552841,2.260208,-0.024414,-0.043945,1.036133,0.2168045805489192,-2.8115570912808456,76.8559749829955,0.7831816077232361,-0.02039444074034691,-0.013766273856163025,0.6213059425354004
560d2020-4620-4cd0-a39f-1f740350b859,7ade7517-e2d0-4374-9c1a-e3565540cf30,1761215859562977267,2.813339,-4.796982,3.053665,-0.013184,-0.04834,1.046387,0.18305520594077554,-2.787479895392867,76.89107290020614,0.7829909920692444,-0.020042659714818,-0.01387251541018486,0.6215552091598511
560d2020-4620-4cd0-a39f-1f740350b859,7ade7517-e2d0-4374-9c1a-e3565540cf30,1761215859570572267,2.876282,-5.466461,3.236771,-0.010254,-0.048828,1.044434,0.1374171641403056,-2.7613725719253086,76.99025703745647,0.7824512720108032,-0.019604571163654327,-0.014059706591069698,0.6222442984580994
560d2020-4620-4cd0-a39f-1f740350b859,7ade7517-e2d0-4374-9c1a-e3565540cf30,1761215859578167267,2.571106,-5.954742,2.87056,-0.001465,-0.037109,1.03418,0.08631726076522238,-2.7333445656951696,77.02055390887246,0.7822848558425903,-0.019131947308778763,-0.014261478558182716,0.6224636435508728
560d2020-4620-4cd0-a39f-1f740350b859,7ade7517-e2d0-4374-9c1a-e3565540cf30,1761215859590173267,2.082825,-6.015778,2.626419,0.015625,-0.044434,1.042969,0.031084713956724682,-2.7105220936761873,77.05511869751393,0.7820937633514404,-0.01867174170911312,-0.01452019065618515,0.622711718082428
560d2020-4620-4cd0-a39f-1f740350b859,7ade7517-e2d0-4374-9c1a-e3565540cf30,1761215859602179267,2.813339,-6.20079,2.138138,0.004395,-0.046875,1.047363,-0.027598915246801296,-2.684417648085855,77.1058486162878,0.781814694404602,-0.0181681327521801,-0.014786895364522934,0.6230706572532654
560d2020-4620-4cd0-a39f-1f740350b859,7ade7517-e2d0-4374-9c1a-e3565540cf30,1761215859614185267,3.484726,-6.322861,1.588821,0.026367,-0.058594,1.045898,-0.09099412534707414,-2.658599342929926,77.09702829970001,0.7818585634231567,-0.01764843985438347,-0.015077677555382252,0.623023509979248
560d2020-4620-4cd0-a39f-1f740350b859,7ade7517-e2d0-4374-9c1a-e3565540cf30,1761215859626191267,3.791809,-6.381989,0.917435,0.011719,-0.056152,1.033691,-0.14954935078697074,-2.6299067510810117,77.08593571365432,0.7819157838821411,-0.017135784029960632,-0.015319549478590488,0.622960090637207
560d2020-4620-4cd0-a39f-1f740350b859,7ade7517-e2d0-4374-9c1a-e3565540cf30,1761215859634181267,4.096985,-7.11441,0.734329,0.004883,-0.058105,1.047852,-0.2132039931673382,-2.5993655093724364,77.08717753312958,0.781905472278595,-0.016581151634454727,-0.015588056296110153,0.6229814291000366
560d2020-4620-4cd0-a39f-1f740350b859,7ade7517-e2d0-4374-9c1a-e3565540cf30,1761215859642169267,4.524231,-7.419586,0.551224,-0.000488,-0.072754,1.037109,-0.2807811449573723,-2.5651242320304233,77.07194262426614,0.7819846868515015,-0.015982210636138916,-0.0158609040081501,0.6228907704353333
560d2020-4620-4cd0-a39f-1f740350b859,7ade7517-e2d0-4374-9c1a-e3565540cf30,1761215859650157267,4.827499,-7.84874,0.795364,0.008301,-0.05957,1.028809,-0.34653769095727166,-2.5327144192104414,77.03784171262487,0.7821662425994873,-0.015408382751047611,-0.01612890139222145,0.6226703524589539
560d2020-4620-4cd0-a39f-1f740350b859,7ade7517-e2d0-4374-9c1a-e3565540cf30,1761215859658145267,5.195618,-8.701324,0.97847,0.001953,-0.06543,1.024902,-0.42316479732476586,-2.494700530937799,77.01986542912731,0.7822594046592712,-0.014735080301761627,-0.016443096101284027,0.6225613355636597
560d2020-4620-4cd0-a39f-1f740350b859,7ade7517-e2d0-4374-9c1a-e3565540cf30,1761215859668826267,5.073547,-8.701324,1.10054,0.039062,-0.056641,1.01123,-0.49881702266236005,-2.4617999765639214,77.02794738681573,0.782210111618042,-0.014098255895078182,-0.016781821846961975,0.6226290464401245
560d2020-4620-4cd0-a39f-1f740350b859,7ade7517-e2d0-4374-9c1a-e3565540cf30,1761215859679507267,4.461288,-7.84874,1.039505,0.034668,-0.040527,1.019043,-0.5795765252892248,-2.4259354726095963,77.06334441324006,0.7820119261741638,-0.01340930163860321,-0.017142411321401596,0.6228833198547363
560d2020-4620-4cd0-a39f-1f740350b859,7ade7517-e2d0-4374-9c1a-e3565540cf30,1761215859690188267,3.364563,-7.11441,0.612259,0.043945,-0.05127,1.019043,-0.6508894682714481,-2.3932308178946555,77.06477195777676,0.7819990515708923,-0.012798218987882137,-0.017451509833335876,0.6229037642478943
560d2020-4620-4cd0-a39f-1f740350b859,7ade7517-e2d0-4374-9c1a-e3565540cf30,1761215859700844267,2.082825,-3.879547,-0.91362,0.044922,-0.068848,1.01123,-0.7699329526186447,-2.3597884592746134,77.04727790828336,0.7820815443992615,-0.011925604194402695,-0.01808033138513565,0.6227995753288269
560d2020-4620-4cd0-a39f-1f740350b859,7ade7517-e2d0-4374-9c1a-e3565540cf30,1761215859711501267,0.860214,-2.721786,-2.256393,0.039062,-0.046387,1.007812,-0.8086160376469783,-2.353053208842372,77.00709834576541,0.7822949290275574,-0.011675802990794182,-0.018303655087947845,0.6225297451019287
560d2020-4620-4cd0-a39f-1f740350b859,7ade7517-e2d0-4374-9c1a-e3565540cf30,1761215859722158267,0.25177,-2.353668,-2.80571,0.044922,-0.052246,0.998047,-0.8413875883690715,-2.353184929669362,76.93553764998732,0.7826782464981079,-0.01151023618876934,-0.018520910292863846,0.6220443844795227
560d2020-4620-4cd0-a39f-1f740350b859,7ade7517-e2d0-4374-9c1a-e3565540cf30,1761215859730178267,-0.055313,-1.440048,-3.416061,0.034668,-0.050293,1.036621,-0.8686150447761126,-2.355106197574857,76.86720445503758,0.7830442786216736,-0.011386719532310963,-0.018710516393184662,0.621580183506012
560d2020-4620-4cd0-a39f-1f740350b859,7ade7517-e2d0-4374-9c1a-e3565540cf30,1761215859738200267,0.312805,-0.705719,-3.843307,0.036133,-0.056641,1.035156,-0.8816200568840318,-2.3569302660506346,76.82685364861038,0.7832606434822083,-0.011335266754031181,-0.018805284053087234,0.6213055849075317
560d2020-4620-4cd0-a39f-1f740350b859,7ade7517-e2d0-4374-9c1a-e3565540cf30,1761215859746222267,0.801086,-0.278473,-3.477097,0.014648,-0.052734,1.027344,-0.8917813999070539,-2.356854718280031,76.82859117713087,0.78324955701828,-0.011279372498393059,-0.018874499946832657,0.6213183999061584
560d2020-4620-4cd0-a39f-1f740350b859,7ade7517-e2d0-4374-9c1a-e3565540cf30,1761215859754244267,0.860214,-0.337601,-3.477097,0.018066,-0.040039,1.02002,-0.8950986960287126,-2.3528550024813515,76.78742620711873,0.7834728956222534,-0.011240818537771702,-0.018871460109949112,0.6210376024246216
560d2020-4620-4cd0-a39f-1f740350b859,7ade7517-e2d0-4374-9c1a-e3565540cf30,1761215859764901267,0.556946,-0.339508,-3.110886,0.016602,-0.050781,1.024414,-0.9024055606969597,-2.3469693742764397,76.76113590610628,0.783615231513977,-0.011165300384163857,-0.018886972218751907,0.620858907699585
560d2020-4620-4cd0-a39f-1f740350b859,7ade7517-e2d0-4374-9c1a-e3565540cf30,1761215859775558267,0.068665,0.453949,-3.110886,0.017578,-0.053711,1.029297,-0.9016420023353005,-2.34666098983623,76.76075155379074,0.7836174964904785,-0.011167391203343868,-0.018880043178796768,0.6208562254905701
560d2020-4620-4cd0-a39f-1f740350b859,7ade7517-e2d0-4374-9c1a-e3565540cf30,1761215859786215267,-0.421524,1.184464,-2.866745,0.017578,-0.044922,1.026367,-0.8933524651353737,-2.350946622562167,76.73447385406327,0.7837604284286499,-0.011245939880609512,-0.018843987956643105,0.6206754446029663
560d2020-4620-4cd0-a39f-1f740350b859,7ade7517-e2d0-4374-9c1a-e3565540cf30,1761215859797022267,-2.189636,2.223969,-3.538132,0.036133,-0.039551,1.019043,-0.8724866289433546,-2.3747506930959865,76.5989572277562,0.7844929695129395,-0.011544069275259972,-0.018816515803337097,0.6197446584701538
560d2020-4620-4cd0-a39f-1f740350b859,7ade7517-e2d0-4374-9c1a-e3565540cf30,1761215859807830267,-2.372742,3.078461,-4.331589,0.037109,-0.037598,1.03125,-0.85633567733771,-2.3957187448622674,76.53298373656689,0.7848484516143799,-0.011785833165049553,-0.018812520429491997,0.6192899942398071
560d2020-4620-4cd0-a39f-1f740350b859,7ade7517-e2d0-4374-9c1a-e3565540cf30,1761215859818638267,-2.557755,2.466202,-5.674362,0.02832,-0.055176,1.046875,-0.8426211703692955,-2.4231351662309417,76.45948919094442,0.7852426767349243,-0.012059873901307583,-0.01885896548628807,0.6187832951545715
560d2020-4620-4cd0-a39f-1f740350b859,7ade7517-e2d0-4374-9c1a-e3565540cf30,1761215859826540267,-1.396179,3.078461,-7.200241,0.030762,-0.063477,1.054199,-0.823919673282854,-2.4417083667463984,76.38788982151411,0.7856287956237793,-0.01229992788285017,-0.01882338523864746,0.6182893514633179
560d2020-4620-4cd0-a39f-1f740350b859,7ade7517-e2d0-4374-9c1a-e3565540cf30,1761215859834445267,-0.60463,3.686905,-8.298874,0.010742,-0.062988,1.052734,-0.797589273565378,-2.4589356564727174,76.32633784262181,0.785961925983429,-0.012570193037390709,-0.018729032948613167,0.6178632974624634
560d2020-4620-4cd0-a39f-1f740350b859,7ade7517-e2d0-4374-9c1a-e3565540cf30,1761215859842350267,-0.114441,3.566742,-9.153366,-0.008789,-0.07666,1.046875,-0.7645892012298647,-2.4698754760687596,76.28594701375252,0.7861829996109009,-0.012829720973968506,-0.01855713315308094,0.6175817251205444
560d2020-4620-4cd0-a39f-1f740350b859,7ade7517-e2d0-4374-9c1a-e3565540cf30,1761215859850255267,0.190735,2.895355,-9.763718,-0.016113,-0.068359,1.037109,-0.7297157994599804,-2.4790702030201355,76.22213366226487,0.7865307331085205,-0.013090988621115685,-0.01836012490093708,0.6171392798423767
560d2020-4620-4cd0-a39f-1f740350b859,7ade7517-e2d0-4374-9c1a-e3565540cf30,1761215859860921267,0.679016,1.796722,-8.84819,-0.035645,-0.063477,1.054688,-0.7017581961545697,-2.485039136036759,76.13363298810103,0.7870104908943176,-0.013296586461365223,-0.01819010078907013,0.6165279746055603
560d2020-4620-4cd0-a39f-1f740350b859,7ade7517-e2d0-4374-9c1a-e3565540cf30,1761215859871587267,1.657486,0.513077,-7.871628,-0.037598,-0.077148,1.068359,-0.6749197826270211,-2.481847803156579,76.06348718189018,0.7873925566673279,-0.013430069200694561,-0.017980393022298813,0.616043210029602
560d2020-4620-4cd0-a39f-1f740350b859,7ade7517-e2d0-4374-9c1a-e3565540cf30,1761215859882253267,3.059387,-1.255035,-6.528854,-0.041016,-0.090332,1.051758,-0.6593211805004375,-2.4690600554335296,75.99485919378483,0.7877660989761353,-0.013436700217425823,-0.017796441912651062,0.6155707240104675
560d2020-4620-4cd0-a39f-1f740350b859,7ade7517-e2d0-4374-9c1a-e3565540cf30,1761215859892920267,6.906509,-5.041122,-2.378464,-0.027344,-0.071289,1.068359,-0.6975989043392972,-2.400880200232919,75.88122484636264,0.788382351398468,-0.01277981512248516,-0.017680782824754715,0.6147986054420471
560d2020-4620-4cd0-a39f-1f740350b859,7ade7517-e2d0-4374-9c1a-e3565540cf30,1761215859903590267,6.965637,-5.10025,-0.91362,-0.017578,-0.056152,1.036133,-0.7321370820214507,-2.343075343962546,75.8544946976757,0.7885305881500244,-0.012200845405459404,-0.017605528235435486,0.6146223545074463
560d2020-4620-4cd0-a39f-1f740350b859,7ade7517-e2d0-4374-9c1a-e3565540cf30,1761215859914260267,6.416321,-5.283356,0.795364,-0.007812,-0.049316,1.02832,-0.7703998885779128,-2.2844034990320106,75.84729211305131,0.7885735630989075,-0.011592903174459934,-0.017553508281707764,0.6145804524421692
560d2020-4620-4cd0-a39f-1f740350b859,7ade7517-e2d0-4374-9c1a-e3565540cf30,1761215859924944267,4.096985,-6.076813,2.260208,0.039062,-0.026367,0.989258,-0.8212641036936424,-2.2395885292391764,75.84853771299035,0.7885668277740479,-0.011011447757482529,-0.017663385719060898,0.6145966649055481
560d2020-4620-4cd0-a39f-1f740350b859,7ade7517-e2d0-4374-9c1a-e3565540cf30,1761215859935631267,0.434875,-6.99234,2.809525,0.068359,-0.036133,0.945801,-0.8936787910354008,-2.2222887210946443,75.84479362264251,0.7885786294937134,-0.010504573583602905,-0.01806861348450184,0.6145786046981812
560d2020-4620-4cd0-a39f-1f740350b859,7ade7517-e2d0-4374-9c1a-e3565540cf30,1761215859946318267,-4.264832,-6.381989,2.443314,0.054688,-0.006836,0.961914,-0.970535222382471,-2.2470092985181576,75.91127525848596,0.7882052063941956,-0.010251663625240326,-0.018735986202955246,0.6150417923927307
560d2020-4620-4cd0-a39f-1f740350b859,7ade7517-e2d0-4374-9c1a-e3565540cf30,1761215859954279267,-12.870789,-3.818512,0.795364,0.053711,-0.002441,0.998535,-1.0933978771398971,-2.40142483495548,75.98704799814917,0.7877483367919922,-0.010641130618751049,-0.0204164981842041,0.6155667304992676
560d2020-4620-4cd0-a39f-1f740350b859,7ade7517-e2d0-4374-9c1a-e3565540cf30,1761215859962242267,-13.969421,-2.475739,0.001907,0.066406,-0.032715,1.004883,-1.1399233115433534,-2.519615413566293,75.99506202917087,0.7876731753349304,-0.01120244525372982,-0.021371670067310333,0.6156206130981445
560d2020-4620-4cd0-a39f-1f740350b859,7ade7517-e2d0-4374-9c1a-e3565540cf30,1761215859970205267,-14.884949,-1.255035,-0.852585,0.062012,-0.033203,1.025391,-1.1682396665695098,-2.647505859359522,75.99712240865583,0.7876299619674683,-0.011929305270314217,-0.022253183647990227,0.6156309247016907
560d2020-4620-4cd0-a39f-1f740350b859,7ade7517-e2d0-4374-9c1a-e3565540cf30,1761215859978168267,-14.091492,-1.07193,-1.096725,0.054688,-0.058594,1.03418,-1.1884917533141162,-2.7766466584158325,76.00020120018048,0.7875812649726868,-0.012707835994660854,-0.023086082190275192,0.6156469583511353
560d2020-4620-4cd0-a39f-1f740350b859,7ade7517-e2d0-4374-9c1a-e3565540cf30,1761215859988863267,-11.46698,-0.583649,-1.340866,0.040527,-0.063965,1.07373,-1.2016957308205536,-2.890627640254263,75.98710275540343,0.7876231670379639,-0.01342330314218998,-0.023787256330251694,0.6155514717102051
560d2020-4620-4cd0-a39f-1f740350b859,7ade7517-e2d0-4374-9c1a-e3565540cf30,1761215859999558267,-8.842468,-0.156403,-1.157761,0.029297,-0.077637,1.06543,-1.2091496610220172,-2.9834617283796416,75.95090354279161,0.7877944111824036,-0.014029285870492458,-0.02433238923549652,0.6152974963188171
560d2020-4620-4cd0-a39f-1f740350b859,7ade7517-e2d0-4374-9c1a-e3565540cf30,1761215860010253267,-6.828308,-0.034332,-1.218796,0.019531,-0.062988,1.038574,-1.211250709896159,-3.0552894331986806,75.943573969926,0.7878162264823914,-0.014513596892356873,-0.024731306359171867,0.6152424216270447
560d2020-4620-4cd0-a39f-1f740350b859,7ade7517-e2d0-4374-9c1a-e3565540cf30,1761215860020959267,-6.52504,-0.28038,-0.547409,0.001465,-0.054688,0.976074,-1.214330619322182,-3.1266723066172086,75.93630890451392,0.7878372669219971,-0.014989622868597507,-0.025134503841400146,0.6151877641677856
560d2020-4620-4cd0-a39f-1f740350b859,7ade7517-e2d0-4374-9c1a-e3565540cf30,1761215860031664267,-6.70433,-0.463486,-0.425339,0.039551,-0.043457,1.040527,-1.215670554885096,-3.176740433513985,75.91855687683628,0.7879199385643005,-0.01533074863255024,-0.02540993131697178,0.6150621175765991
560d2020-4620-4cd0-a39f-1f740350b859,7ade7517-e2d0-4374-9c1a-e3565540cf30,1761215860042369267,-7.989883,-0.825882,0.307083,0.026855,-0.091309,1.070801,-1.2244119387600412,-3.242956155533332,75.95884420478367,0.7876851558685303,-0.015730248764157295,-0.025830702856183052,0.6153351664543152
560d2020-4620-4cd0-a39f-1f740350b859,7ade7517-e2d0-4374-9c1a-e3565540cf30,1761215860052991267,-5.119324,0.087738,0.123978,0.043457,-0.082031,1.049316,-1.2397622672198019,-3.3746061410707298,76.00415475651566,0.7874045372009277,-0.016542643308639526,-0.026649128645658493,0.6156380772590637
560d2020-4620-4cd0-a39f-1f740350b859,7ade7517-e2d0-4374-9c1a-e3565540cf30,1761215860063613267,-5.182266,0.822067,-1.096725,0.036133,-0.064453,0.991211,-1.2391790756412635,-3.421144487336763,75.99813903723643,0.7874248027801514,-0.016867129132151604,-0.02689405530691147,0.6155927181243896
560d2020-4620-4cd0-a39f-1f740350b859,7ade7517-e2d0-4374-9c1a-e3565540cf30,1761215860074235267,-6.767273,0.881195,-1.585007,0.025391,-0.054688,0.999023,-1.232075996551256,-3.478844780527629,75.97469886647079,0.7875370979309082,-0.017307531088590622,-0.02715141698718071,0.6154255270957947
560d2020-4620-4cd0-a39f-1f740350b859,7ade7517-e2d0-4374-9c1a-e3565540cf30,1761215860082236267,-7.192612,0.696182,-2.622604,0.021484,-0.058594,1.019043,-1.2313760478844855,-3.5395536976416118,75.96677905807388,0.7875635027885437,-0.017730627208948135,-0.0274711474776268,0.6153654456138611
560d2020-4620-4cd0-a39f-1f740350b859,7ade7517-e2d0-4374-9c1a-e3565540cf30,1761215860090239267,-6.706238,0.69809,-3.110886,0.026855,-0.061035,1.02832,-1.2243676522887141,-3.5987307506083,75.94339529790936,0.7876746654510498,-0.01818084344267845,-0.027736783027648926,0.6151980757713318
560d2020-4620-4cd0-a39f-1f740350b859,7ade7517-e2d0-4374-9c1a-e3565540cf30,1761215860098242267,-6.706238,0.69809,-3.782272,0.015625,-0.063477,1.037109,-1.2178768113315817,-3.651212735531066,75.8999033089467,0.7878952622413635,-0.01858723908662796,-0.02796662598848343,0.6148930191993713
560d2020-4620-4cd0-a39f-1f740350b859,7ade7517-e2d0-4374-9c1a-e3565540cf30,1761215860106245267,-6.217957,0.392914,-4.453659,0.008789,-0.049316,1.053711,-1.2104676815571973,-3.7036149315011078,75.8766549819608,0.7880072593688965,-0.018993206322193146,-0.02819277159869671,0.614726722240448
560d2020-4620-4cd0-a39f-1f740350b859,7ade7517-e2d0-4374-9c1a-e3565540cf30,1761215860116890267,-5.4245,0.026703,-4.758835,0.02002,-0.056641,1.058594,-1.2054589646378546,-3.7434396301346244,75.84165551243017,0.7881850600242615,-0.019302744418382645,-0.028365885838866234,0.6144811511039734
560d2020-4620-4cd0-a39f-1f740350b859,7ade7517-e2d0-4374-9c1a-e3565540cf30,1761215860127535267,-4.325867,-0.583649,-4.880905,0.004395,-0.046387,1.061523,-1.2061210986815072,-3.773417255262163,75.78766571537128,0.7884658575057983,-0.019518937915563583,-0.028521854430437088,0.6141067147254944
560d2020-4620-4cd0-a39f-1f740350b859,7ade7517-e2d0-4374-9c1a-e3565540cf30,1761215860138180267,-3.044128,-1.010895,-4.758835,-0.005859,-0.043945,1.063477,-1.2043526882459032,-3.795868649555948,75.75552311647286,0.7886321544647217,-0.01969100721180439,-0.02862437628209591,0.6138828992843628
560d2020-4620-4cd0-a39f-1f740350b859,7ade7517-e2d0-4374-9c1a-e3565540cf30,1761215860146219267,-0.724792,-0.888824,-3.171921,0.000977,-0.041016,1.047852,-1.1928771005386851,-3.79752595776728,75.71718526368367,0.7888398766517639,-0.0197734497487545,-0.028547655791044235,0.6136168241500854
560d2020-4620-4cd0-a39f-1f740350b859,7ade7517-e2d0-4374-9c1a-e3565540cf30,1761215860154259267,0.25177,-1.316071,-2.378464,-0.025879,-0.027344,1.030762,-1.187123539895599,-3.7799945994049766,75.67665248214703,0.7890632748603821,-0.019693557173013687,-0.02840729057788849,0.6133386492729187
560d2020-4620-4cd0-a39f-1f740350b859,7ade7517-e2d0-4374-9c1a-e3565540cf30,1761215860162299267,1.167297,-1.560211,-1.462936,-0.010254,-0.038086,1.031738,-1.1877814034114709,-3.7638830970049435,75.64391339807506,0.7892428636550903,-0.01958712562918663,-0.0283200666308403,0.6131150126457214
560d2020-4620-4cd0-a39f-1f740350b859,7ade7517-e2d0-4374-9c1a-e3565540cf30,1761215860170339267,1.836777,-1.867294,-0.852585,-0.015137,-0.056641,1.02002,-1.18846494001574,-3.740555390257292,75.61824474860711,0.7893865704536438,-0.019429031759500504,-0.028195718303322792,0.6129407286643982
560d2020-4620-4cd0-a39f-1f740350b859,7ade7517-e2d0-4374-9c1a-e3565540cf30,1761215860180973267,1.838684,-3.147125,-0.181198,-0.012207,-0.04248,1.016602,-1.1973123257236378,-3.711489532639197,75.60808106012183,0.7894468903541565,-0.019183868542313576,-0.028099628165364265,0.6128751635551453
560d2020-4620-4cd0-a39f-1f740350b859,7ade7517-e2d0-4374-9c1a-e3565540cf30,1761215860191607267,1.836777,-4.369736,0.795364,-0.006836,-0.028809,1.005371,-1.2205229749024453,-3.6783587143479846,75.61852705340434,0.7893945574760437,-0.018828803673386574,-0.028084207326173782,0.6129542589187622
560d2020-4620-4cd0-a39f-1f740350b859,7ade7517-e2d0-4374-9c1a-e3565540cf30,1761215860202241267,1.228333,-5.466461,0.734329,0.005859,-0.030762,1.024414,-1.2617001014685665,-3.6536092327718666,75.65741744399557,0.7891832590103149,-0.018428374081850052,-0.028241854161024094,0.6132312417030334
560d2020-4620-4cd0-a39f-1f740350b859,7ade7517-e2d0-4374-9c1a-e3565540cf30,1761215860210399267,1.472473,-5.893707,0.917435,0.024902,-0.033203,1.018066,-1.3092956799395434,-3.624706335399027,75.73623605741747,0.7887575626373291,-0.017954956740140915,-0.02842746488749981,0.61378413438797
560d2020-4620-4cd0-a39f-1f740350b859,7ade7517-e2d0-4374-9c1a-e3565540cf30,1761215860218557267,1.777649,-6.87027,0.917435,0.03125,-0.023926,1.006348,-1.3659759269880711,-3.5890545829497578,75.76524487706517,0.7885980010032654,-0.017398573458194733,-0.02863122895359993,0.6139956712722778
560d2020-4620-4cd0-a39f-1f740350b859,7ade7517-e2d0-4374-9c1a-e3565540cf30,1761215860226715267,1.899719,-6.87027,0.490189,0.049805,-0.018066,1.033691,-1.4306566531640623,-3.558573599376032,75.7810372517095,0.7885056734085083,-0.016838129609823227,-0.02891550585627556,0.6141165494918823
560d2020-4620-4cd0-a39f-1f740350b859,7ade7517-e2d0-4374-9c1a-e3565540cf30,1761215860234873267,2.571106,-6.99234,-0.608444,0.046387,-0.025879,1.052734,-1.4974618266572073,-3.5239002830241666,75.78424472051566,0.7884812951087952,-0.01624055579304695,-0.02919001132249832,0.6141509413719177
560d2020-4620-4cd0-a39f-1f740350b859,7ade7517-e2d0-4374-9c1a-e3565540cf30,1761215860245323267,3.973007,-6.689072,-1.03569,0.053223,-0.018066,1.052734,-1.5664455680026061,-3.4754184035413016,75.77022402876298,0.788552463054657,-0.015540627762675285,-0.02940320409834385,0.6140674948692322
560d2020-4620-4cd0-a39f-1f740350b859,7ade7517-e2d0-4374-9c1a-e3565540cf30,1761215860255773267,4.829407,-6.137848,-1.218796,0.030273,-0.033691,1.028809,-1.6229877706836233,-3.421675256716306,75.74286003011424,0.7886996865272522,-0.01487460546195507,-0.0295010544359684,0.6138901710510254
560d2020-4620-4cd0-a39f-1f740350b859,7ade7517-e2d0-4374-9c1a-e3565540cf30,1761215860266223267,5.500793,-5.161285,-1.523972,0.037109,-0.049805,0.994141,-1.676792262302723,-3.363920152154461,75.70021339056366,0.7889304757118225,-0.014199582859873772,-0.02955702506005764,0.6136069297790527
560d2020-4620-4cd0-a39f-1f740350b859,7ade7517-e2d0-4374-9c1a-e3565540cf30,1761215860274230267,4.94957,-5.163193,-0.669479,0.027832,-0.027344,1.006348,-1.7234620314175864,-3.308169032609905,75.68117546407926,0.789035975933075,-0.01357050146907568,-0.02957787737250328,0.6134845018386841
560d2020-4620-4cd0-a39f-1f740350b859,7ade7517-e2d0-4374-9c1a-e3565540cf30,1761215860282238267,4.096985,-4.85611,-0.120163,0.039062,-0.029297,0.999512,-1.7647672056659143,-3.2633134682874765,75.69461031269626,0.7889658808708191,-0.013036827556788921,-0.02962394431233406,0.6135839223861694
560d2020-4620-4cd0-a39f-1f740350b859,7ade7517-e2d0-4374-9c1a-e3565540cf30,1761215860290246267,3.181458,-5.283356,0.734329,0.041992,-0.027344,1.007324,-1.8091474373903325,-3.2186722611795435,75.69845823851016,0.7889462113380432,-0.01249062828719616,-0.02969115972518921,0.6136173009872437
560d2020-4620-4cd0-a39f-1f740350b859,7ade7517-e2d0-4374-9c1a-e3565540cf30,1761215860298254267,2.14386,-4.795074,0.917435,0.044922,-0.025879,1.004883,-1.8552882592926483,-3.1873516345341826,75.7269277797247,0.7887904644012451,-0.012020348571240902,-0.029844295233488083,0.6138194799423218
560d2020-4620-4cd0-a39f-1f740350b859,7ade7517-e2d0-4374-9c1a-e3565540cf30,1761215860308907267,0.984192,-4.611969,0.551224,0.047363,-0.01709,1.020508,-1.8998299495638258,-3.160984669056836,75.79071995774596,0.7884443402290344,-0.011583424173295498,-0.030016276985406876,0.6142640113830566
560d2020-4620-4cd0-a39f-1f740350b859,7ade7517-e2d0-4374-9c1a-e3565540cf30,1761215860319560267,0.801086,-4.123688,0.490189,0.058105,-0.023926,1.032715,-1.9443092374601865,-3.1362702391061514,75.78120967006065,0.7884905338287354,-0.011177328415215015,-0.030189063400030136,0.6142038106918335
560d2020-4620-4cd0-a39f-1f740350b859,7ade7517-e2d0-4374-9c1a-e3565540cf30,1761215860330213267,-0.053406,-3.330231,0.185013,0.038086,-0.05957,1.057617,-1.9814688623655463,-3.124852587721642,75.77693712349267,0.788506805896759,-0.010900667868554592,-0.030383221805095673,0.6141782999038696
560d2020-4620-4cd0-a39f-1f740350b859,7ade7517-e2d0-4374-9c1a-e3565540cf30,1761215860340925267,1.226425,-2.233505,0.185013,0.039551,-0.057617,1.035156,-2.03308344089896,-3.110455544175385,75.80378315763296,0.7883532047271729,-0.01051770057529211,-0.030663777142763138,0.6143682599067688
560d2020-4620-4cd0-a39f-1f740350b859,7ade7517-e2d0-4374-9c1a-e3565540cf30,1761215860351639267,0.923157,-1.255035,0.8564,0.032227,-0.043945,1.03125,-2.0419013101543455,-3.0959800184234245,75.8004557177063,0.7883727550506592,-0.010371656157076359,-0.03064662590622902,0.614346444606781
560d2020-4620-4cd0-a39f-1f740350b859,7ade7517-e2d0-4374-9c1a-e3565540cf30,1761215860362353267,0.497818,-1.134872,1.283646,0.021973,-0.054199,1.046387,-2.0422602777755503,-3.0919309167212816,75.79887122055295,0.7883822917938232,-0.010342277586460114,-0.03062727116048336,0.6143356561660767
560d2020-4620-4cd0-a39f-1f740350b859,7ade7517-e2d0-4374-9c1a-e3565540cf30,1761215860370331267,1.348495,-0.951767,1.527786,0.03418,-0.060547,1.028809,-2.043614108485656,-3.086171788266322,75.81904908034092,0.7882753610610962,-0.010289978235960007,-0.0306075606495142,0.6144747138023376
560d2020-4620-4cd0-a39f-1f740350b859,7ade7517-e2d0-4374-9c1a-e3565540cf30,1761215860378309267,1.836777,-0.463486,2.077103,0.019531,-0.041016,1.025391,-2.0487290434779086,-3.070765772289345,75.8710065654482,0.7879996299743652,-0.010142633691430092,-0.030564839020371437,0.614832878112793
560d2020-4620-4cd0-a39f-1f740350b859,7ade7517-e2d0-4374-9c1a-e3565540cf30,1761215860386287267,1.472473,0.087738,2.748489,0.031738,-0.04541,1.012695,-2.0409341044670217,-3.0508328518327374,75.8933689087829,0.7878872752189636,-0.01004135049879551,-0.030406378209590912,0.6149863600730896
560d2020-4620-4cd0-a39f-1f740350b859,7ade7517-e2d0-4374-9c1a-e3565540cf30,1761215860394265267,1.836777,0.268936,3.175735,0.039062,-0.048828,1.019531,-2.033090735675337,-3.0326679249737314,75.93211659468588,0.7876864075660706,-0.009948224760591984,-0.03025844693183899,0.6152524352073669
560d2020-4620-4cd0-a39f-1f740350b859,7ade7517-e2d0-4374-9c1a-e3565540cf30,1761215860404902267,1.167297,0.148773,2.687454,0.041992,-0.053223,1.006836,-2.0320235636107955,-3.0227661832478594,75.9943486199098,0.7873551845550537,-0.009869440458714962,-0.030203375965356827,0.6156802177429199
560d2020-4620-4cd0-a39f-1f740350b859,7ade7517-e2d0-4374-9c1a-e3565540cf30,1761215860415539267,1.104355,-0.646591,2.077103,0.040039,-0.048828,1.032227,-2.035854839874466,-3.017156470641277,76.04144095601676,0.7871026396751404,-0.009797872044146061,-0.030203625559806824,0.6160041689872742
560d2020-4620-4cd0-a39f-1f740350b859,7ade7517-e2d0-4374-9c1a-e3565540cf30,1761215860426176267,1.167297,-1.07193,1.588821,0.035156,-0.052246,1.039551,-2.0445824027681967,-3.0048726753540156,76.06834011348887,0.7869591116905212,-0.009659430012106895,-0.030199887230992317,0.6161898970603943
560d2020-4620-4cd0-a39f-1f740350b859,7ade7517-e2d0-4374-9c1a-e3565540cf30,1761215860434175267,2.202988,-1.562119,1.588821,0.046387,-0.054688,1.048828,-2.059583315421157,-2.988463824993241,76.06713955518819,0.7869661450386047,-0.009466310031712055,-0.03021467849612236,0.6161832213401794
560d2020-4620-4cd0-a39f-1f740350b859,7ade7517-e2d0-4374-9c1a-e3565540cf30,1761215860442174267,3.303528,-2.353668,1.283646,0.030273,-0.058594,1.040039,-2.0795985652229945,-2.961615771864047,76.06516101602908,0.7869789004325867,-0.009174689650535583,-0.030207781121134758,0.616171658039093
560d2020-4620-4cd0-a39f-1f740350b859,7ade7517-e2d0-4374-9c1a-e3565540cf30,1761215860450173267,4.217148,-2.599716,1.527786,0.037598,-0.06543,1.01709,-2.1015813010192455,-2.931928897211362,76.07409056284084,0.7869332432746887,-0.008850103244185448,-0.03020000271499157,0.616235077381134
560d2020-4620-4cd0-a39f-1f740350b859,7ade7517-e2d0-4374-9c1a-e3565540cf30,1761215860458172267,3.913879,-2.353668,2.077103,0.042969,-0.044434,1.009766,-2.121312280882542,-2.900651628395715,76.0617586394785,0.7870029211044312,-0.008532296866178513,-0.030166584998369217,0.6161521673202515
560d2020-4620-4cd0-a39f-1f740350b859,7ade7517-e2d0-4374-9c1a-e3565540cf30,1761215860468863267,3.730774,-2.414703,2.016068,0.037598,-0.043457,1.02002,-2.1435607519677085,-2.865436078190869,76.07056190586042,0.7869593501091003,-0.008168314583599567,-0.030130889266729355,0.6162145733833313
560d2020-4620-4cd0-a39f-1f740350b859,7ade7517-e2d0-4374-9c1a-e3565540cf30,1761215860479554267,2.449036,-2.231598,2.016068,0.04248,-0.040039,1.025879,-2.1617031998371417,-2.8388774102770853,76.11620663792418,0.7867162823677063,-0.00787623506039381,-0.030115973204374313,0.6165293455123901
560d2020-4620-4cd0-a39f-1f740350b859,7ade7517-e2d0-4374-9c1a-e3565540cf30,1761215860490245267,2.571106,-1.987457,1.832962,0.04541,-0.043945,1.028809,-2.182847511782046,-2.812208277269073,76.13455248997077,0.786619246006012,-0.007574423216283321,-0.03011903539299965,0.6166567802429199
560d2020-4620-4cd0-a39f-1f740350b859,7ade7517-e2d0-4374-9c1a-e3565540cf30,1761215860501046267,0.801086,-2.902985,1.771927,0.057617,-0.044434,1.01416,-2.2334435183251333,-2.7750461626458076,76.1447455177895,0.786561131477356,-0.007044168189167976,-0.03026723675429821,0.6167299151420593
560d2020-4620-4cd0-a39f-1f740350b859,7ade7517-e2d0-4374-9c1a-e3565540cf30,1761215860511848267,-0.909805,-3.576279,1.588821,0.057617,-0.040527,1.010742,-2.2736007480320364,-2.7755365569915913,76.16576424132201,0.7864372134208679,-0.006825804710388184,-0.03054676577448845,0.6168766617774963
560d2020-4620-4cd0-a39f-1f740350b859,7ade7517-e2d0-4374-9c1a-e3565540cf30,1761215860522650267,-1.701355,-3.513336,1.588821,0.070801,-0.040527,1.004395,-2.315482404646426,-2.784726920397184,76.16492545685298,0.7864279747009277,-0.00666369404643774,-0.030883558094501495,0.6168733835220337
560d2020-4620-4cd0-a39f-1f740350b859,7ade7517-e2d0-4374-9c1a-e3565540cf30,1761215860530539267,-2.128601,-3.330231,1.527786,0.065918,-0.048828,1.008789,-2.356134527723391,-2.801121399538819,76.14790602847897,0.7865040302276611,-0.006562091410160065,-0.031249716877937317,0.6167591214179993
560d2020-4620-4cd0-a39f-1f740350b859,7ade7517-e2d0-4374-9c1a-e3565540cf30,1761215860538429267,-2.494812,-2.841949,1.405716,0.061035,-0.041992,1.005371,-2.393722184077166,-2.82075468051617,76.13624174809144,0.7865509986877441,-0.006497863680124283,-0.0316125713288784,0.6166813969612122
560d2020-4620-4cd0-a39f-1f740350b859,7ade7517-e2d0-4374-9c1a-e3565540cf30,1761215860546319267,-3.65448,-2.353668,1.10054,0.075684,-0.04834,1.001953,-2.4264897167594266,-2.8466681943891348,76.13686673814865,0.7865312099456787,-0.0064993612468242645,-0.031976789236068726,0.6166878342628479
560d2020-4620-4cd0-a39f-1f740350b859,7ade7517-e2d0-4374-9c1a-e3565540cf30,1761215860554209267,-3.959656,-1.743317,1.22261,0.067383,-0.037598,1.019043,-2.4524966734713614,-2.8792469466443844,76.12865018731321,0.7865588068962097,-0.0065855178982019424,-0.03232990950345993,0.6166332960128784
560d2020-4620-4cd0-a39f-1f740350b859,7ade7517-e2d0-4374-9c1a-e3565540cf30,1761215860564903267,-4.570007,-0.095367,1.22261,0.074707,-0.040527,1.032227,-2.4675300876168427,-2.9129614504749513,76.10880987171447,0.7866515517234802,-0.006741880439221859,-0.03261310234665871,0.6164983510971069
560d2020-4620-4cd0-a39f-1f740350b859,7ade7517-e2d0-4374-9c1a-e3565540cf30,1761215860575597267,-5.119324,0.453949,1.344681,0.066406,-0.047852,1.021973,-2.474699071852691,-2.953156721897273,76.16324583743304,0.7863448262214661,-0.006963860243558884,-0.03288157284259796,0.6168728470802307
560d2020-4620-4cd0-a39f-1f740350b859,7ade7517-e2d0-4374-9c1a-e3565540cf30,1761215860586291267,-4.814148,1.430511,1.283646,0.056152,-0.036133,1.03418,-2.470973917285118,-2.991335022559276,76.21038421601722,0.7860808372497559,-0.0072325291112065315,-0.03306421637535095,0.6171963214874268
560d2020-4620-4cd0-a39f-1f740350b859,7ade7517-e2d0-4374-9c1a-e3565540cf30,1761215860596928267,-3.288269,1.918793,0.612259,0.064941,-0.046875,1.046875,-2.4564705334517742,-3.055125477230972,76.24882965464052,0.7858589887619019,-0.007737448439002037,-0.033310405910015106,0.6174594163894653
560d2020-4620-4cd0-a39f-1f740350b859,7ade7517-e2d0-4374-9c1a-e3565540cf30,1761215860607566267,-2.677917,1.613617,0.612259,0.060059,-0.069336,1.027832,-2.4448046284267466,-3.0840016978039224,76.24820111892544,0.7858571410179138,-0.007998697459697723,-0.03338572755455971,0.6174544095993042
560d2020-4620-4cd0-a39f-1f740350b859,7ade7517-e2d0-4374-9c1a-e3565540cf30,1761215860618204267,-2.74086,1.367569,0.307083,0.055176,-0.05957,1.023438,-2.436119951279399,-3.1079845403599315,76.22287326064922,0.7859889268875122,-0.00821750983595848,-0.03345339000225067,0.6172800660133362
560d2020-4620-4cd0-a39f-1f740350b859,7ade7517-e2d0-4374-9c1a-e3565540cf30,1761215860626240267,-2.922058,0.759125,0.734329,0.05127,-0.047852,1.007812,-2.428594987564719,-3.1271333361617666,76.20548085254,0.7860790491104126,-0.00839458778500557,-0.03350350260734558,0.6171602606773376
560d2020-4620-4cd0-a39f-1f740350b859,7ade7517-e2d0-4374-9c1a-e3565540cf30,1761215860634277267,-3.959656,0.270844,0.8564,0.027344,-0.053711,1.004395,-2.4276773750334355,-3.1597079173381846,76.19916215277661,0.7861034870147705,-0.008625051006674767,-0.03367190808057785,0.6171166896820068
560d2020-4620-4cd0-a39f-1f740350b859,7ade7517-e2d0-4374-9c1a-e3565540cf30,1761215860642314267,-5.670547,-0.585556,1.039505,0.026855,-0.043945,0.990723,-2.4255332039819595,-3.2056237453731535,76.22562225052351,0.7859476208686829,-0.008944038301706314,-0.03390616923570633,0.617297887802124
560d2020-4620-4cd0-a39f-1f740350b859,7ade7517-e2d0-4374-9c1a-e3565540cf30,1761215860650351267,-7.43866,-0.888824,1.832962,0.037109,-0.044434,0.995605,-2.429942207210913,-3.2619101737647,76.25288504936607,0.7857820987701416,-0.009298551827669144,-0.03424137085676193,0.6174848079681396
560d2020-4620-4cd0-a39f-1f740350b859,7ade7517-e2d0-4374-9c1a-e3565540cf30,1761215860662304267,-9.576797,-1.134872,2.382278,0.057129,-0.055664,1.007812,-2.4556151686184,-3.4173169068754112,76.35622380397348,0.7851682305335999,-0.01019507646560669,-0.03526271507143974,0.6181936860084534
560d2020-4620-4cd0-a39f-1f740350b859,7ade7517-e2d0-4374-9c1a-e3565540cf30,1761215860674259267,-10.307312,0.209808,2.99263,0.038574,-0.046387,1.001465,-2.451114021813667,-3.504528077876392,76.41198634182543,0.7848405838012695,-0.010800140909850597,-0.03570684418082237,0.6185739040374756
560d2020-4620-4cd0-a39f-1f740350b859,7ade7517-e2d0-4374-9c1a-e3565540cf30,1761215860686214267,-11.100769,0.94223,3.1147,0.053711,-0.058105,1.013672,-2.4456596301064737,-3.5994556702743954,76.41337423160589,0.7848036885261536,-0.011479975655674934,-0.036181189119815826,0.6185808777809143
560d2020-4620-4cd0-a39f-1f740350b859,7ade7517-e2d0-4374-9c1a-e3565540cf30,1761215860698169267,-11.281967,1.001358,3.358841,0.050781,-0.061035,1.015625,-2.444030954841397,-3.697534649442349,76.42258430555779,0.7847217917442322,-0.01215823832899332,-0.03669954091310501,0.6186412572860718
560d2020-4620-4cd0-a39f-1f740350b859,7ade7517-e2d0-4374-9c1a-e3565540cf30,1761215860706176267,-12.016296,0.82016,3.358841,0.058105,-0.057617,1.039551,-2.440410779249592,-3.796506536227564,76.43735007423511,0.7846096754074097,-0.012851477600634098,-0.03720977529883385,0.6187389492988586
560d2020-4620-4cd0-a39f-1f740350b859,7ade7517-e2d0-4374-9c1a-e3565540cf30,1761215860714186267,-11.953354,1.489639,3.297806,0.057129,-0.069336,1.056152,-2.434309581150181,-3.900397563752277,76.44227484601402,0.7845492362976074,-0.013594932854175568,-0.03772852569818497,0.6187682151794434
560d2020-4620-4cd0-a39f-1f740350b859,7ade7517-e2d0-4374-9c1a-e3565540cf30,1761215860722196267,-10.614395,1.489639,2.809525,0.078613,-0.073242,1.068848,-2.4247713216546587,-3.9969955605306593,76.44613818224683,0.7844976782798767,-0.014307252131402493,-0.03818434476852417,0.6187896132469177
560d2020-4620-4cd0-a39f-1f740350b859,7ade7517-e2d0-4374-9c1a-e3565540cf30,1761215860730206267,-9.208679,1.125336,1.893997,0.07373,-0.086914,1.052246,-2.426005175254555,-4.082930028303669,76.44278471374848,0.7844848036766052,-0.014890708029270172,-0.03865551948547363,0.6187629699707031
560d2020-4620-4cd0-a39f-1f740350b859,7ade7517-e2d0-4374-9c1a-e3565540cf30,1761215860740906267,-7.804871,1.247406,1.161575,0.087402,-0.085449,1.057129,-2.42683107427818,-4.159867356757637,76.45894039129853,0.7843695282936096,-0.015408068895339966,-0.03907798230648041,0.6188699007034302
560d2020-4620-4cd0-a39f-1f740350b859,7ade7517-e2d0-4374-9c1a-e3565540cf30,1761215860751606267,-6.401062,0.576019,-0.059128,0.066895,-0.096191,1.045898,-2.4381555537476105,-4.222046575041838,76.45910593030197,0.7843420505523682,-0.015772975981235504,-0.03949066624045372,0.6188693642616272
560d2020-4620-4cd0-a39f-1f740350b859,7ade7517-e2d0-4374-9c1a-e3565540cf30,1761215860762306267,-5.4245,0.331879,-0.79155,0.066406,-0.096191,1.03418,-2.4452820543074827,-4.276700420064402,76.4369655634466,0.784438967704773,-0.016116734594106674,-0.039830904453992844,0.6187158226966858
560d2020-4620-4cd0-a39f-1f740350b859,7ade7517-e2d0-4374-9c1a-e3565540cf30,1761215860772946267,-4.87709,-1.379013,-2.195358,0.062012,-0.084961,1.017578,-2.4746769167513123,-4.370031257541676,76.44442567283838,0.7843534350395203,-0.016595082357525826,-0.04053608700633049,0.6187657713890076
560d2020-4620-4cd0-a39f-1f740350b859,7ade7517-e2d0-4374-9c1a-e3565540cf30,1761215860783587267,-4.816055,-1.928329,-2.988815,0.060547,-0.089844,1.049316,-2.499859172845013,-4.412609901482328,76.42004611251585,0.7844599485397339,-0.016759628430008888,-0.04093431681394577,0.6186001300811768
560d2020-4620-4cd0-a39f-1f740350b859,7ade7517-e2d0-4374-9c1a-e3565540cf30,1761215860794228267,-4.51088,-1.745224,-3.293991,0.052246,-0.077148,1.037109,-2.518051150823554,-4.45246023378219,76.38604646130169,0.7846216559410095,-0.016946833580732346,-0.0412684865295887,0.6183676719665527
560d2020-4620-4cd0-a39f-1f740350b859,7ade7517-e2d0-4374-9c1a-e3565540cf30,1761215860802238267,-4.87709,-2.904892,-3.538132,0.059082,-0.067383,1.025391,-2.546218887077977,-4.48926674197424,76.34642052038294,0.7848110198974609,-0.017061594873666763,-0.04165363684296608,0.6180983185768127
560d2020-4620-4cd0-a39f-1f740350b859,7ade7517-e2d0-4374-9c1a-e3565540cf30,1761215860810246267,-4.87709,-3.026962,-3.782272,0.062012,-0.085938,1.024414,-2.5773674548265713,-4.526236861080503,76.29515534925578,0.7850616574287415,-0.01716594584286213,-0.04205825552344322,0.6177496314048767
560d2020-4620-4cd0-a39f-1f740350b859,7ade7517-e2d0-4374-9c1a-e3565540cf30,1761215860818254267,-4.814148,-2.353668,-3.721237,0.047363,-0.075684,1.027832,-2.606667558562973,-4.571716608957956,76.24715565491873,0.7852916121482849,-0.01733781024813652,-0.042496342211961746,0.6174224615097046
560d2020-4620-4cd0-a39f-1f740350b859,7ade7517-e2d0-4374-9c1a-e3565540cf30,1761215860826262267,-4.693985,-1.073837,-3.293991,0.03125,-0.074219,1.018555,-2.6204235466959123,-4.610142319639078,76.20802799605033,0.7854819893836975,-0.017542008310556412,-0.042791180312633514,0.6171541213989258
560d2020-4620-4cd0-a39f-1f740350b859,7ade7517-e2d0-4374-9c1a-e3565540cf30,1761215860836930267,-5.302429,-1.07193,-2.92778,0.044434,-0.073242,0.995605,-2.6313792512750545,-4.6501155586073954,76.1957803492883,0.7855278253555298,-0.01776200719177723,-0.04307915270328522,0.6170694231987
560d2020-4620-4cd0-a39f-1f740350b859,7ade7517-e2d0-4374-9c1a-e3565540cf30,1761215860847598267,-5.973816,-1.010895,-2.378464,0.052734,-0.063477,0.999023,-2.6407926261544397,-4.697293221293238,76.22043784243147,0.7853724360466003,-0.018025850877165794,-0.04340100288391113,0.6172370314598083
560d2020-4620-4cd0-a39f-1f740350b859,7ade7517-e2d0-4374-9c1a-e3565540cf30,1761215860858266267,-7.318497,-0.768661,-2.134323,0.051758,-0.069336,1.012207,-2.654559714906963,-4.751752521357277,76.18333755676818,0.7855448126792908,-0.018339671194553375,-0.04378204792737961,0.6169814467430115
560d2020-4620-4cd0-a39f-1f740350b859,7ade7517-e2d0-4374-9c1a-e3565540cf30,1761215860868908267,-8.598328,0.576019,-1.951218,0.055664,-0.09375,1.020508,-2.656345343092289,-4.889558400204286,76.16052509836688,0.7856099605560303,-0.019285019487142563,-0.04453057050704956,0.6168160438537598
560d2020-4620-4cd0-a39f-1f740350b859,7ade7517-e2d0-4374-9c1a-e3565540cf30,1761215860879552267,-8.478165,0.638962,-1.707077,0.041504,-0.077637,1.021973,-2.6521870021854097,-4.957628816830295,76.15203279348283,0.7856287360191345,-0.019778121262788773,-0.04486607015132904,0.6167522072792053
560d2020-4620-4cd0-a39f-1f740350b859,7ade7517-e2d0-4374-9c1a-e3565540cf30,1761215860890196267,-8.232117,0.392914,-2.073288,0.045898,-0.081543,1.04248,-2.651860520655559,-5.028714460264622,76.13324666564249,0.7856998443603516,-0.0202754195779562,-0.04524211585521698,0.6166179180145264
560d2020-4620-4cd0-a39f-1f740350b859,7ade7517-e2d0-4374-9c1a-e3565540cf30,1761215860900864267,-7.440567,0.024796,-2.744675,0.051758,-0.087402,1.030762,-2.652401512053715,-5.09198570764679,76.10327543812417,0.7858338356018066,-0.020718930289149284,-0.04557998478412628,0.6164076328277588
560d2020-4620-4cd0-a39f-1f740350b859,7ade7517-e2d0-4374-9c1a-e3565540cf30,1761215860911530267,-7.255554,-0.522614,-2.561569,0.033203,-0.099609,1.043457,-2.65604211814247,-5.1527016300359785,76.08592169685285,0.7858995199203491,-0.02112334594130516,-0.045927487313747406,0.6162843108177185
560d2020-4620-4cd0-a39f-1f740350b859,7ade7517-e2d0-4374-9c1a-e3565540cf30,1761215860922196267,-6.217957,-1.377106,-2.500534,0.046875,-0.094238,1.031738,-2.663619477282268,-5.210059134505226,76.09018979356065,0.7858485579490662,-0.02147487923502922,-0.046287901699543,0.6163102388381958
560d2020-4620-4cd0-a39f-1f740350b859,7ade7517-e2d0-4374-9c1a-e3565540cf30,1761215860930200267,-4.997253,-1.804352,-2.68364,0.033691,-0.099121,1.037598,-2.6859015405750957,-5.302064010354452,76.04068309998443,0.7860651612281799,-0.022007307037711143,-0.04692467674612999,0.6159669756889343
560d2020-4620-4cd0-a39f-1f740350b859,7ade7517-e2d0-4374-9c1a-e3565540cf30,1761215860938204267,-4.508972,-1.682281,-2.317429,0.038574,-0.080566,1.02002,-2.7004766955823833,-5.3342417506198325,76.08135958148219,0.7858261466026306,-0.022133316844701767,-0.04720499739050865,0.6162458658218384
560d2020-4620-4cd0-a39f-1f740350b859,7ade7517-e2d0-4374-9c1a-e3565540cf30,1761215860946208267,-4.264832,-1.438141,-1.951218,0.047363,-0.081543,1.023926,-2.715868707987855,-5.365988184001607,76.06095305784334,0.7859153151512146,-0.022277070209383965,-0.04747682809829712,0.6161061525344849
560d2020-4620-4cd0-a39f-1f740350b859,7ade7517-e2d0-4374-9c1a-e3565540cf30,1761215860954212267,-3.774643,-1.134872,-1.646042,0.037598,-0.09082,1.010742,-2.7222193986586243,-5.397822595780243,76.04586768523947,0.7859794497489929,-0.02246791683137417,-0.04768809676170349,0.6160010695457458
560d2020-4620-4cd0-a39f-1f740350b859,7ade7517-e2d0-4374-9c1a-e3565540cf30,1761215860964891267,-3.349304,-0.705719,-0.974655,0.048828,-0.096191,1.030273,-2.728470271581616,-5.426026790640123,76.04752410221951,0.7859551906585693,-0.022627409547567368,-0.047882478684186935,0.6160111427307129
560d2020-4620-4cd0-a39f-1f740350b859,7ade7517-e2d0-4374-9c1a-e3565540cf30,1761215860975570267,-2.372742,-0.583649,-0.608444,0.030762,-0.102051,1.039551,-2.7304314940278624,-5.449576771924356,76.04685676680091,0.7859472632408142,-0.022778958082199097,-0.04802202805876732,0.6160047650337219
560d2020-4620-4cd0-a39f-1f740350b859,7ade7517-e2d0-4374-9c1a-e3565540cf30,1761215860986249267,-2.494812,-0.278473,-0.547409,0.046387,-0.088867,1.029785,-2.733286134989497,-5.467140667119572,76.0379052699821,0.7859861850738525,-0.022888053208589554,-0.048133961856365204,0.6159422993659973
560d2020-4620-4cd0-a39f-1f740350b859,7ade7517-e2d0-4374-9c1a-e3565540cf30,1761215860996920267,-2.069473,0.085831,-0.91362,0.047852,-0.097168,1.025879,-2.733308423122927,-5.485117758754348,76.00504436219356,0.786154568195343,-0.023025289177894592,-0.04822386056184769,0.6157152056694031
560d2020-4620-4cd0-a39f-1f740350b859,7ade7517-e2d0-4374-9c1a-e3565540cf30,1761215861007592267,-2.311707,0.026703,-0.486374,0.044922,-0.105469,1.009277,-2.7306427190031086,-5.5014255530677465,75.98743404091658,0.7862428426742554,-0.02315911464393139,-0.048289380967617035,0.6155923008918762
560d2020-4620-4cd0-a39f-1f740350b859,7ade7517-e2d0-4374-9c1a-e3565540cf30,1761215861018264267,-2.494812,-0.156403,-0.669479,0.038574,-0.100098,1.01416,-2.7303795118039624,-5.5207696875883965,75.99290476446548,0.7862046957015991,-0.02329118177294731,-0.04839229956269264,0.6156279444694519
560d2020-4620-4cd0-a39f-1f740350b859,7ade7517-e2d0-4374-9c1a-e3565540cf30,1761215861026245267,-3.288269,-1.499176,-0.547409,0.055664,-0.089844,1.015137,-2.7481915466702413,-5.567453768331483,76.01070401682775,0.786080002784729,-0.02350878342986107,-0.048768218606710434,0.6157492399215698
560d2020-4620-4cd0-a39f-1f740350b859,7ade7517-e2d0-4374-9c1a-e3565540cf30,1761215861034225267,-3.591537,-1.440048,-0.730515,0.05957,-0.106445,1.033691,-2.7617534804624713,-5.59741896455606,76.06790859444017,0.7857528328895569,-0.023617368191480637,-0.04903357848525047,0.6161414384841919
560d2020-4620-4cd0-a39f-1f740350b859,7ade7517-e2d0-4374-9c1a-e3565540cf30,1761215861042205267,-4.262924,-0.646591,-1.462936,0.071777,-0.099121,1.036621,-2.7793167592278536,-5.630429924443014,76.09080099036086,0.7856068015098572,-0.023739846423268318,-0.04933571070432663,0.6162988543510437
560d2020-4620-4cd0-a39f-1f740350b859,7ade7517-e2d0-4374-9c1a-e3565540cf30,1761215861050185267,-3.65448,1.064301,-1.340866,0.061523,-0.086426,1.05127,-2.777514878876342,-5.658370607026039,76.0668850763148,0.785723090171814,-0.023951776325702667,-0.04946817085146904,0.6161317229270935
560d2020-4620-4cd0-a39f-1f740350b859,7ade7517-e2d0-4374-9c1a-e3565540cf30,1761215861060886267,-3.105164,1.735687,-1.462936,0.050293,-0.106934,1.055664,-2.7648068798248926,-5.690596378033873,76.01484554899521,0.7859931588172913,-0.024263979867100716,-0.04954276233911514,0.6157689690589905
560d2020-4620-4cd0-a39f-1f740350b859,7ade7517-e2d0-4374-9c1a-e3565540cf30,1761215861071587267,-2.311707,2.223969,-1.707077,0.053223,-0.097168,1.050293,-2.7462294129137947,-5.713095387800507,75.97338371301095,0.7862133383750916,-0.024536341428756714,-0.049526993185281754,0.6154782772064209
560d2020-4620-4cd0-a39f-1f740350b859,7ade7517-e2d0-4374-9c1a-e3565540cf30,1761215861082288267,-1.703262,2.466202,-1.157761,0.039551,-0.106934,1.052734,-2.7228827081415177,-5.730159068109341,75.95739362280204,0.7863012552261353,-0.024785932153463364,-0.04945472255349159,0.615361750125885
560d2020-4620-4cd0-a39f-1f740350b859,7ade7517-e2d0-4374-9c1a-e3565540cf30,1761215861092970267,-2.008438,1.977921,-0.730515,0.03125,-0.105957,1.027832,-2.699928514570813,-5.754198636936441,75.94511852414757,0.7863657474517822,-0.025079745799303055,-0.049423232674598694,0.6152700185775757
560d2020-4620-4cd0-a39f-1f740350b859,7ade7517-e2d0-4374-9c1a-e3565540cf30,1761215861103652267,-1.701355,1.308441,-0.181198,0.029785,-0.109863,1.014648,-2.6798612366030836,-5.770558582681148,75.96238807925785,0.7862739562988281,-0.025292521342635155,-0.04937691241502762,0.6153823733329773
560d2020-4620-4cd0-a39f-1f740350b859,7ade7517-e2d0-4374-9c1a-e3565540cf30,1761215861114334267,-2.374649,0.879288,0.368118,0.052734,-0.112793,1.011719,-2.6662478048695504,-5.7890238463208625,76.01439608360214,0.7859917283058167,-0.025470152497291565,-0.04939392954111099,0.6157340407371521
560d2020-4620-4cd0-a39f-1f740350b859,7ade7517-e2d0-4374-9c1a-e3565540cf30,1761215861122399267,-3.900528,1.367569,0.612259,0.033203,-0.109375,1.008789,-2.645136514973355,-5.853311348829413,76.00998477199451,0.7859941124916077,-0.02602725848555565,-0.0495925173163414,0.6156917214393616
560d2020-4620-4cd0-a39f-1f740350b859,7ade7517-e2d0-4374-9c1a-e3565540cf30,1761215861130462267,-4.203796,1.430511,0.795364,0.060547,-0.099121,1.019043,-2.6381925969576394,-5.891505722794256,76.05597524621179,0.7857317924499512,-0.026307053864002228,-0.04976004734635353,0.6160011291503906
560d2020-4620-4cd0-a39f-1f740350b859,7ade7517-e2d0-4374-9c1a-e3565540cf30,1761215861138525267,-4.020691,2.223969,0.307083,0.072266,-0.116211,1.009277,-2.62913361297627,-5.93115321890833,76.09344899532479,0.785515308380127,-0.02661178447306156,-0.04991912096738815,0.6162512302398682
560d2020-4620-4cd0-a39f-1f740350b859,7ade7517-e2d0-4374-9c1a-e3565540cf30,1761215861146588267,-3.77655,2.223969,0.185013,0.059082,-0.120605,1.025879,-2.613722373590328,-5.968858098560033,76.10698470927518,0.7854311466217041,-0.02694770321249962,-0.05001881346106529,0.6163357496261597
560d2020-4620-4cd0-a39f-1f740350b859,7ade7517-e2d0-4374-9c1a-e3565540cf30,1761215861157127267,-2.983093,2.162933,-0.486374,0.064453,-0.109375,1.025391,-2.6037541364599868,-5.99758845087478,76.09013285510338,0.7855123281478882,-0.027205966413021088,-0.050100550055503845,0.616214394569397
560d2020-4620-4cd0-a39f-1f740350b859,7ade7517-e2d0-4374-9c1a-e3565540cf30,1761215861167666267,-2.006531,2.407074,-0.303268,0.067383,-0.119141,1.038574,-2.593296029818866,-6.02238159195285,76.07645601236923,0.7855784893035889,-0.027438465505838394,-0.05015850439667702,0.6161149740219116
560d2020-4620-4cd0-a39f-1f740350b859,7ade7517-e2d0-4374-9c1a-e3565540cf30,1761215861178205267,-1.213074,2.895355,-0.425339,0.077148,-0.116699,1.044434,-2.5792728357881756,-6.037451819271892,76.06892739350573,0.7856178283691406,-0.02762066386640072,-0.050141334533691406,0.6160580515861511
560d2020-4620-4cd0-a39f-1f740350b859,7ade7517-e2d0-4374-9c1a-e3565540cf30,1761215861188873267,-0.299454,3.015518,-0.608444,0.053711,-0.099121,1.034668,-2.5623401303012283,-6.042530152462952,76.04879313029215,0.7857310175895691,-0.027755366638302803,-0.05004759132862091,0.6159152984619141
560d2020-4620-4cd0-a39f-1f740350b859,7ade7517-e2d0-4374-9c1a-e3565540cf30,1761215861199544267,-0.053406,3.200531,-0.730515,0.073242,-0.109375,1.04541,-2.5385235817786835,-6.039968722490835,76.00903736382061,0.7859562635421753,-0.02788308449089527,-0.049860887229442596,0.6156371831893921
560d2020-4620-4cd0-a39f-1f740350b859,7ade7517-e2d0-4374-9c1a-e3565540cf30,1761215861210215267,0.497818,3.137589,-0.730515,0.064941,-0.104004,1.049316,-2.519406005490769,-6.034293688046403,76.04678440526148,0.7857644557952881,-0.027930427342653275,-0.049708567559719086,0.6158921122550964
560d2020-4620-4cd0-a39f-1f740350b859,7ade7517-e2d0-4374-9c1a-e3565540cf30,1761215861220915267,1.167297,2.895355,-0.974655,0.0625,-0.111328,1.03418,-2.485745745821707,-6.011588220905086,76.04539122691894,0.7857973575592041,-0.027955960482358932,-0.04935573786497116,0.6158773899078369
560d2020-4620-4cd0-a39f-1f740350b859,7ade7517-e2d0-4374-9c1a-e3565540cf30,1761215861231617267,0.862122,2.590179,-1.03569,0.05127,-0.100098,1.027344,-2.4680376073947,-6.001352806705438,76.06684242411949,0.7856945395469666,-0.02797161415219307,-0.04918469116091728,0.6160215139389038
560d2020-4620-4cd0-a39f-1f740350b859,7ade7517-e2d0-4374-9c1a-e3565540cf30,1761215861242319267,0.007629,3.322601,-1.279831,0.064453,-0.087402,1.021484,-2.4498557631330407,-5.992344876644584,76.08196851965324,0.7856252789497375,-0.02800101786851883,-0.049015436321496964,0.6161219477653503
560d2020-4620-4cd0-a39f-1f740350b859,7ade7517-e2d0-4374-9c1a-e3565540cf30,1761215861252928267,-0.053406,2.895355,-1.03569,0.061035,-0.094727,1.025391,-2.4330770159524406,-5.992229569801802,76.07939890429431,0.7856463193893433,-0.028091534972190857,-0.04889915511012077,0.6161002516746521
560d2020-4620-4cd0-a39f-1f740350b859,7ade7517-e2d0-4374-9c1a-e3565540cf30,1761215861263537267,-0.299454,3.446579,-1.462936,0.039062,-0.103027,1.022949,-2.4076011103696406,-5.989019418822594,76.0651584096801,0.7857352495193481,-0.02821250632405281,-0.04870377480983734,0.6159968376159668
560d2020-4620-4cd0-a39f-1f740350b859,7ade7517-e2d0-4374-9c1a-e3565540cf30,1761215861274146267,-0.602722,3.871918,-1.585007,0.043945,-0.106934,1.01416,-2.3760362312216343,-5.992034732632755,76.03529074095921,0.7859077453613281,-0.028415536507964134,-0.048496097326278687,0.6157838106155396
560d2020-4620-4cd0-a39f-1f740350b859,7ade7517-e2d0-4374-9c1a-e3565540cf30,1761215861282195267,-0.60463,4.114151,-1.462936,0.031738,-0.106934,1.022461,-2.3012372968693384,-5.995405788377391,76.01743962289065,0.786033570766449,-0.02884811721742153,-0.04799666255712509,0.6156421899795532
560d2020-4620-4cd0-a39f-1f740350b859,7ade7517-e2d0-4374-9c1a-e3565540cf30,1761215861290243267,-0.846863,4.665375,-1.096725,0.027832,-0.102539,1.009277,-2.2552609892378923,-6.001939273929714,75.98701314011103,0.7862131595611572,-0.029152680188417435,-0.047708556056022644,0.6154208779335022
560d2020-4620-4cd0-a39f-1f740350b859,7ade7517-e2d0-4374-9c1a-e3565540cf30,1761215861298291267,-1.276016,5.090714,-0.974655,0.026855,-0.098145,1.019531,-2.2057619673331224,-6.010767412485825,76.03212744092772,0.7859872579574585,-0.029460512101650238,-0.04742782935500145,0.6157163977622986
560d2020-4620-4cd0-a39f-1f740350b859,7ade7517-e2d0-4374-9c1a-e3565540cf30,1761215861306339267,-0.968933,5.702972,-0.547409,0.024414,-0.105469,1.013184,-2.15167808448688,-6.017423437811262,76.0617924561446,0.7858470678329468,-0.029784642159938812,-0.0471002459526062,0.6159048676490784
560d2020-4620-4cd0-a39f-1f740350b859,7ade7517-e2d0-4374-9c1a-e3565540cf30,1761215861316976267,-1.276016,4.785538,-0.608444,0.023926,-0.102051,1.023438,-2.1042292079310703,-6.026084808060715,76.0545206874012,0.7859016060829163,-0.03010212630033493,-0.04681937396526337,0.615841269493103
560d2020-4620-4cd0-a39f-1f740350b859,7ade7517-e2d0-4374-9c1a-e3565540cf30,1761215861327613267,-0.66185,4.114151,-0.79155,0.020508,-0.109863,1.021484,-2.0603290291174585,-6.033427084866808,76.0421918622896,0.7859823703765869,-0.03039349615573883,-0.046554382890462875,0.6157439351081848
560d2020-4620-4cd0-a39f-1f740350b859,7ade7517-e2d0-4374-9c1a-e3565540cf30,1761215861338250267,-0.968933,3.444672,-0.974655,0.036133,-0.107422,1.006836,-2.0279381611612153,-6.040999084560097,76.023677910177,0.7860915064811707,-0.030627049505710602,-0.04636785387992859,0.6156070828437805
560d2020-4620-4cd0-a39f-1f740350b859,7ade7517-e2d0-4374-9c1a-e3565540cf30,1761215861348912267,-0.663757,2.83432,-2.012253,0.043457,-0.117676,1.004883,-2.0023311469615996,-6.046693571163747,75.97664315722056,0.7863518595695496,-0.03082270547747612,-0.04621006175875664,0.615276575088501
560d2020-4620-4cd0-a39f-1f740350b859,7ade7517-e2d0-4374-9c1a-e3565540cf30,1761215861359574267,-0.724792,2.285004,-2.80571,0.044434,-0.10791,1.005371,-1.9869680833387515,-6.055800843474708,75.92988655346846,0.7866048812866211,-0.03098660707473755,-0.04614078253507614,0.6149500608444214
560d2020-4620-4cd0-a39f-1f740350b859,7ade7517-e2d0-4374-9c1a-e3565540cf30,1761215861370236267,-0.663757,2.346039,-3.110886,0.041504,-0.117188,1.008301,-1.9727803119459228,-6.061282246255279,75.89416940421115,0.7867997288703918,-0.03111478127539158,-0.04606304317712784,0.6147001385688782
560d2020-4620-4cd0-a39f-1f740350b859,7ade7517-e2d0-4374-9c1a-e3565540cf30,1761215861378249267,-0.907898,3.261566,-4.453659,0.040039,-0.105469,1.025391,-1.9356031087461245,-6.072736799964497,75.87938494131302,0.7868887186050415,-0.03139888867735863,-0.045865029096603394,0.6145865321159363
560d2020-4620-4cd0-a39f-1f740350b859,7ade7517-e2d0-4374-9c1a-e3565540cf30,1761215861386260267,0.066757,2.832413,-4.575729,0.030762,-0.115234,1.038574,-1.9127138136976356,-6.074071763409938,75.8240699505266,0.7871938347816467,-0.03155289217829704,-0.045699767768383026,0.6142001152038574
560d2020-4620-4cd0-a39f-1f740350b859,7ade7517-e2d0-4374-9c1a-e3565540cf30,1761215861394271267,0.495911,2.346039,-4.514694,0.022949,-0.101562,1.040039,-1.890226810332951,-6.063546423183124,75.79604274485366,0.787357747554779,-0.03161214292049408,-0.04548127204179764,0.6140031218528748
560d2020-4620-4cd0-a39f-1f740350b859,7ade7517-e2d0-4374-9c1a-e3565540cf30,1761215861402282267,0.860214,2.344131,-3.843307,0.013184,-0.089355,1.041504,-1.8656301599392007,-6.045727942995368,75.81267405815541,0.7872864007949829,-0.03161477670073509,-0.04522159323096275,0.6141136288642883
560d2020-4620-4cd0-a39f-1f740350b859,7ade7517-e2d0-4374-9c1a-e3565540cf30,1761215861412922267,1.533508,1.613617,-3.782272,0.02002,-0.095703,1.04541,-1.8468473237857923,-6.023847588830717,75.76465699646072,0.7875608801841736,-0.0315837524831295,-0.044962313026189804,0.6137822270393372
560d2020-4620-4cd0-a39f-1f740350b859,7ade7517-e2d0-4374-9c1a-e3565540cf30,1761215861423562267,2.26593,1.430511,-3.171921,0.018555,-0.103516,1.054688,-1.8323270804317444,-6.001082820070529,75.71418023681308,0.7878470420837402,-0.03152456134557724,-0.04472696781158447,0.6134352087974548
560d2020-4620-4cd0-a39f-1f740350b859,7ade7517-e2d0-4374-9c1a-e3565540cf30,1761215861434202267,3.425598,1.064301,-3.293991,0.040039,-0.094727,1.036621,-1.8253535507745324,-5.965311799462954,75.66485696300049,0.7881296277046204,-0.03133478760719299,-0.04447445645928383,0.6131001114845276
560d2020-4620-4cd0-a39f-1f740350b859,7ade7517-e2d0-4374-9c1a-e3565540cf30,1761215861444872267,3.974915,1.430511,-3.416061,0.044434,-0.099609,1.056152,-1.8183157094574005,-5.925553993813827,75.63031350495199,0.7883347272872925,-0.03111196868121624,-0.044204410165548325,0.6128672957420349
560d2020-4620-4cd0-a39f-1f740350b859,7ade7517-e2d0-4374-9c1a-e3565540cf30,1761215861455544267,4.707336,1.857758,-3.904343,0.038574,-0.104004,1.053223,-1.8106131153626273,-5.880227515444832,75.58667030284121,0.7885909676551819,-0.030857663601636887,-0.043897759169340134,0.612572431564331
560d2020-4620-4cd0-a39f-1f740350b859,7ade7517-e2d0-4374-9c1a-e3565540cf30,1761215861466216267,4.829407,2.101898,-4.026413,0.04834,-0.11084,1.041016,-1.7998268735856162,-5.83371290572447,75.53151366863634,0.7889101505279541,-0.030615784227848053,-0.043560661375522614,0.6121975779533386
560d2020-4620-4cd0-a39f-1f740350b859,7ade7517-e2d0-4374-9c1a-e3565540cf30,1761215861476874267,5.075455,1.977921,-4.880905,0.038086,-0.101074,1.034668,-1.7753392346614165,-5.742664367096829,75.49885251481265,0.7891331315040588,-0.030131228268146515,-0.04289804771542549,0.6119809150695801
560d2020-4620-4cd0-a39f-1f740350b859,7ade7517-e2d0-4374-9c1a-e3565540cf30,1761215861487534267,5.012512,1.613617,-4.331589,0.029785,-0.106445,1.028809,-1.7620430338141555,-5.696751383717157,75.45783704328576,0.7893766760826111,-0.02990090474486351,-0.04255107045173645,0.6117023229598999
560d2020-4620-4cd0-a39f-1f740350b859,7ade7517-e2d0-4374-9c1a-e3565540cf30,1761215861498194267,5.010605,1.489639,-3.965378,0.020508,-0.094238,1.013672,-1.7450978069539824,-5.64952171119007,75.42514230827327,0.7895774245262146,-0.029677659273147583,-0.04217424988746643,0.611480176448822
560d2020-4620-4cd0-a39f-1f740350b859,7ade7517-e2d0-4374-9c1a-e3565540cf30,1761215861506183267,4.768372,0.82016,-2.988815,0.024414,-0.11377,1.002441,-1.729170476167849,-5.6149103270136935,75.41437309958759,0.7896552681922913,-0.029527820646762848,-0.041877392679452896,0.6114073395729065
560d2020-4620-4cd0-a39f-1f740350b859,7ade7517-e2d0-4374-9c1a-e3565540cf30,1761215861514174267,4.646301,1.125336,-2.378464,0.015625,-0.09082,1.006348,-1.7200988051193242,-5.57726222116602,75.37854963335622,0.7898653745651245,-0.02932950109243393,-0.04160521924495697,0.6111639738082886
560d2020-4620-4cd0-a39f-1f740350b859,7ade7517-e2d0-4374-9c1a-e3565540cf30,1761215861522165267,4.524231,2.529144,-1.951218,0.026367,-0.102051,1.01709,-1.6983937865061667,-5.5353989652546645,75.35169660030749,0.790033757686615,-0.02916603721678257,-0.041225917637348175,0.6109798550605774
560d2020-4620-4cd0-a39f-1f740350b859,7ade7517-e2d0-4374-9c1a-e3565540cf30,1761215861530156267,4.827499,3.015518,-2.073288,0.028809,-0.089355,1.016113,-1.6774983459978505,-5.496425402482389,75.3335766571266,0.7901538610458374,-0.029014911502599716,-0.04086985066533089,0.6108556985855103
560d2020-4620-4cd0-a39f-1f740350b859,7ade7517-e2d0-4374-9c1a-e3565540cf30,1761215861538228267,5.195618,3.993988,-1.951218,0.02832,-0.097656,1.03418,-1.64372352483731,-5.447676431630191,75.32649351677753,0.7902234196662903,-0.028860945254564285,-0.04037576913833618,0.6108058094978333
560d2020-4620-4cd0-a39f-1f740350b859,7ade7517-e2d0-4374-9c1a-e3565540cf30,1761215861546300267,6.170273,4.602432,-3.04985,0.03125,-0.095703,1.032715,-1.6094341217765733,-5.393623138038498,75.32742334190284,0.7902522087097168,-0.02867024764418602,-0.03985191881656647,0.6108119487762451
560d2020-4620-4cd0-a39f-1f740350b859,7ade7517-e2d0-4374-9c1a-e3565540cf30,1761215861554372267,6.782532,4.055023,-3.843307,0.015625,-0.088379,1.046875,-1.5784222590558334,-5.334356941283774,75.29153095501333,0.7904777526855469,-0.028438730165362358,-0.03931376710534096,0.6105657815933228
560d2020-4620-4cd0-a39f-1f740350b859,7ade7517-e2d0-4374-9c1a-e3565540cf30,1761215861562444267,7.637024,3.505707,-4.087448,0.015137,-0.09375,1.037109,-1.5432482202435753,-5.264155974288334,75.27435132734848,0.7906087636947632,-0.028147201985120773,-0.038693469017744064,0.6104492545127869
560d2020-4620-4cd0-a39f-1f740350b859,7ade7517-e2d0-4374-9c1a-e3565540cf30,1761215861573044267,8.18634,2.101898,-3.721237,0.009766,-0.092773,1.021484,-1.5162113456057973,-5.19085608750763,75.29561860702117,0.7905328273773193,-0.02777794562280178,-0.03812221810221672,0.610600471496582
560d2020-4620-4cd0-a39f-1f740350b859,7ade7517-e2d0-4374-9c1a-e3565540cf30,1761215861583644267,8.613586,1.369476,-3.355026,-0.010742,-0.09668,1.023926,-1.4960947612616873,-5.112238852528204,75.28013755193808,0.7906518578529358,-0.027347352355718613,-0.03756146878004074,0.6105004549026489
560d2020-4620-4cd0-a39f-1f740350b859,7ade7517-e2d0-4374-9c1a-e3565540cf30,1761215861594244267,8.18634,0.026703,-2.561569,0.003418,-0.085449,1.036621,-1.48389893284764,-5.039594487258795,75.26861327324205,0.7907444834709167,-0.02691437304019928,-0.037088166922330856,0.6104286909103394
560d2020-4620-4cd0-a39f-1f740350b859,7ade7517-e2d0-4374-9c1a-e3565540cf30,1761215861604899267,7.514954,-0.766754,-1.646042,-0.001465,-0.09375,1.020508,-1.4840337972886568,-4.9727805299063315,75.27223717654142,0.7907499074935913,-0.026451028883457184,-0.03673453629016876,0.6104633212089539
560d2020-4620-4cd0-a39f-1f740350b859,7ade7517-e2d0-4374-9c1a-e3565540cf30,1761215861615554267,7.575989,-1.682281,-0.91362,0.012207,-0.087891,1.017578,-1.4854679866713991,-4.909631219399082,75.26790601964241,0.7907956838607788,-0.026008617132902145,-0.03640751913189888,0.610442578792572
560d2020-4620-4cd0-a39f-1f740350b859,7ade7517-e2d0-4374-9c1a-e3565540cf30,1761215861626209267,7.026672,-2.231598,0.001907,0.011719,-0.124023,1.04541,-1.4956931697064046,-4.84947644942268,75.2514974431156,0.7909017205238342,-0.025543831288814545,-0.03615443408489227,0.6103399395942688
560d2020-4620-4cd0-a39f-1f740350b859,7ade7517-e2d0-4374-9c1a-e3565540cf30,1761215861634202267,7.209778,-2.902985,1.649857,0.008301,-0.128418,1.026367,-1.5328170992441763,-4.7593793377836375,75.28032138367769,0.7907689213752747,-0.024714678525924683,-0.03593768551945686,0.6105588674545288
560d2020-4620-4cd0-a39f-1f740350b859,7ade7517-e2d0-4374-9c1a-e3565540cf30,1761215861642195267,7.514954,-1.865387,2.077103,0.03125,-0.120117,1.026855,-1.5519743328852489,-4.710078706766971,75.31000273401652,0.790622353553772,-0.024262823164463043,-0.035813868045806885,0.610774040222168
560d2020-4620-4cd0-a39f-1f740350b859,7ade7517-e2d0-4374-9c1a-e3565540cf30,1761215861650188267,7.209778,-0.94986,2.565384,0.052246,-0.121582,1.020508,-1.5682071848272918,-4.66129859324954,75.32676932559842,0.7905452251434326,-0.023834234103560448,-0.035669729113578796,0.6108991503715515
560d2020-4620-4cd0-a39f-1f740350b859,7ade7517-e2d0-4374-9c1a-e3565540cf30,1761215861658181267,7.575989,-0.034332,2.199173,0.019531,-0.109863,1.030762,-1.5674854150672288,-4.609099740925688,75.36122309612846,0.7903801202774048,-0.023467019200325012,-0.03539392724633217,0.6111429929733276
560d2020-4620-4cd0-a39f-1f740350b859,7ade7517-e2d0-4374-9c1a-e3565540cf30,1761215861666189267,8.003235,0.148773,2.626419,0.026855,-0.10498,1.02002,-1.5646808709376359,-4.5530640150167185,75.42460727731412,0.7900623679161072,-0.023075738921761513,-0.0350889228284359,0.6115862131118774
560d2020-4620-4cd0-a39f-1f740350b859,7ade7517-e2d0-4374-9c1a-e3565540cf30,1761215861674197267,8.308411,0.576019,3.480911,0.01709,-0.087402,1.028809,-1.5540905226847987,-4.4862482363653164,75.48444301899546,0.789769172668457,-0.02265309914946556,-0.03467163071036339,0.6120043992996216
560d2020-4620-4cd0-a39f-1f740350b859,7ade7517-e2d0-4374-9c1a-e3565540cf30,1761215861682205267,8.430481,-0.339508,3.969193,0.005371,-0.100586,1.01123,-1.548927456486224,-4.423269607238069,75.53143421636163,0.7895411252975464,-0.02223219722509384,-0.0343092679977417,0.6123343706130981
560d2020-4620-4cd0-a39f-1f740350b859,7ade7517-e2d0-4374-9c1a-e3565540cf30,1761215861690213267,8.491516,-1.438141,4.091263,0.038574,-0.080078,1.021484,-1.5595493583551425,-4.352536702440667,75.5686387090715,0.789362907409668,-0.021676644682884216,-0.03401202708482742,0.612600564956665
560d2020-4620-4cd0-a39f-1f740350b859,7ade7517-e2d0-4374-9c1a-e3565540cf30,1761215861702208267,8.369446,-1.804352,4.945755,0.032715,-0.084961,0.999512,-1.57633194581758,-4.286049708264254,75.6176294658124,0.7891181111335754,-0.021114114671945572,-0.03378169983625412,0.6129482984542847
560d2020-4620-4cd0-a39f-1f740350b859,7ade7517-e2d0-4374-9c1a-e3565540cf30,1761215861714205267,7.940292,-2.721786,4.76265,0.052734,-0.085449,1.027344,-1.5998080269241497,-4.221717477019931,75.67881885686083,0.7888050079345703,-0.020527226850390434,-0.03361067175865173,0.6133804321289062
560d2020-4620-4cd0-a39f-1f740350b859,7ade7517-e2d0-4374-9c1a-e3565540cf30,1761215861726202267,7.9422,-2.658844,4.823685,0.055176,-0.077148,1.037598,-1.6298487366082188,-4.156963897914218,75.71354282371549,0.7886314988136292,-0.019910180941224098,-0.03347734361886978,0.6136311292648315
560d2020-4620-4cd0-a39f-1f740350b859,7ade7517-e2d0-4374-9c1a-e3565540cf30,1761215861738199267,8.123398,-2.416611,4.579544,0.063477,-0.086426,1.041504,-1.6623446220441749,-4.088657868511833,75.76487557340825,0.7883692383766174,-0.01925075799226761,-0.0333443209528923,0.6139963269233704
560d2020-4620-4cd0-a39f-1f740350b859,7ade7517-e2d0-4374-9c1a-e3565540cf30,1761215861747797267,9.162903,-1.194,3.419876,0.05957,-0.071777,1.03418,-1.7151863891715156,-3.9371883190372707,75.89713999907114,0.787693202495575,-0.0178866945207119,-0.03291800618171692,0.6149275302886963
560d2020-4620-4cd0-a39f-1f740350b859,7ade7517-e2d0-4374-9c1a-e3565540cf30,1761215861757396267,9.407043,-0.217438,2.687454,0.064453,-0.05957,1.036133,-1.7307856754784847,-3.8507985942829284,75.91335379661002,0.7876288890838623,-0.017204059287905693,-0.0325646847486496,0.6150481700897217
560d2020-4620-4cd0-a39f-1f740350b859,7ade7517-e2d0-4374-9c1a-e3565540cf30,1761215861766995267,9.651184,0.576019,2.321243,0.058105,-0.053223,1.03418,-1.7335915705606826,-3.763053272284435,75.96050922315956,0.7874020934104919,-0.016572196036577225,-0.032120440155267715,0.6153791546821594
560d2020-4620-4cd0-a39f-1f740350b859,7ade7517-e2d0-4374-9c1a-e3565540cf30,1761215861776594267,10.322571,1.186371,2.077103,0.054199,-0.052246,1.03418,-1.7276142866624429,-3.6675014806428528,75.9979419779386,0.7872317433357239,-0.015936892479658127,-0.03157208487391472,0.615642249584198
560d2020-4620-4cd0-a39f-1f740350b859,7ade7517-e2d0-4374-9c1a-e3565540cf30,1761215861786193267,10.444641,0.881195,1.710892,0.033203,-0.047852,1.034668,-1.7224041518333484,-3.5675748662780293,76.01611460335268,0.7871652841567993,-0.015272960066795349,-0.031002508476376534,0.6157729625701904
560d2020-4620-4cd0-a39f-1f740350b859,7ade7517-e2d0-4374-9c1a-e3565540cf30,1761215861795815267,10.932922,1.186371,1.710892,0.037109,-0.032715,1.027344,-1.7182300272226627,-3.4666957986655444,76.00925152601997,0.7872326970100403,-0.014603731222450733,-0.030431509017944336,0.6157314777374268
560d2020-4620-4cd0-a39f-1f740350b859,7ade7517-e2d0-4374-9c1a-e3565540cf30,1761215861805437267,10.810852,1.674652,1.649857,0.046387,-0.038086,1.035645,-1.7095937980427425,-3.359599220239199,76.01039903966893,0.7872593402862549,-0.013913563452661037,-0.029797513037919998,0.6157444715499878
560d2020-4620-4cd0-a39f-1f740350b859,7ade7517-e2d0-4374-9c1a-e3565540cf30,1761215861815059267,10.686874,1.367569,1.405716,0.040527,-0.039551,1.03125,-1.7003126512071287,-3.2564111590890796,76.02775599837163,0.7871971726417542,-0.013249610550701618,-0.029181893914937973,0.6158680319786072
560d2020-4620-4cd0-a39f-1f740350b859,7ade7517-e2d0-4374-9c1a-e3565540cf30,1761215861824681267,10.505676,1.308441,1.039505,0.035156,-0.028809,1.040527,-1.6939977054484188,-3.1526045924581845,76.03292542036685,0.7871991991996765,-0.012568674050271511,-0.028581764549016953,0.6159079074859619
560d2020-4620-4cd0-a39f-1f740350b859,7ade7517-e2d0-4374-9c1a-e3565540cf30,1761215861834303267,10.444641,1.369476,0.917435,0.037598,-0.029297,1.027832,-1.6869892716041104,-3.050187370699729,76.02157687619393,0.7872890830039978,-0.011905099265277386,-0.027982525527477264,0.6158336400985718
560d2020-4620-4cd0-a39f-1f740350b859,7ade7517-e2d0-4374-9c1a-e3565540cf30,1761215861843897267,10.566711,2.590179,0.246048,0.037109,-0.03125,1.022949,-1.6501702277559773,-2.8456212051387184,76.12787150294854,0.786778450012207,-0.010671934112906456,-0.02664114348590374,0.6165679097175598
560d2020-4620-4cd0-a39f-1f740350b859,7ade7517-e2d0-4374-9c1a-e3565540cf30,1761215861853493267,10.198593,2.958298,0.307083,0.023438,-0.026367,1.024414,-1.619360214886008,-2.743029523305175,76.15111890189165,0.7866854667663574,-0.010127672925591469,-0.02588014304637909,0.6167281270027161
560d2020-4620-4cd0-a39f-1f740350b859,7ade7517-e2d0-4374-9c1a-e3565540cf30,1761215861863089267,10.381699,2.958298,0.490189,0.023438,-0.025879,1.032227,-1.5918148914453474,-2.63739940337222,76.17190507457022,0.7866047024726868,-0.00954581331461668,-0.025124747306108475,0.6168715953826904
560d2020-4620-4cd0-a39f-1f740350b859,7ade7517-e2d0-4374-9c1a-e3565540cf30,1761215861872685267,10.381699,2.466202,1.10054,0.025391,-0.03125,1.021484,-1.564873436529969,-2.539595993813217,76.1866187416263,0.7865537405014038,-0.009016004391014576,-0.02441488578915596,0.6169731020927429
560d2020-4620-4cd0-a39f-1f740350b859,7ade7517-e2d0-4374-9c1a-e3565540cf30,1761215861882281267,10.198593,1.85585,2.077103,0.015137,-0.018066,1.021973,-1.5415122512716344,-2.439093203345392,76.19342484927107,0.7865443229675293,-0.008450196124613285,-0.023714322596788406,0.6170204281806946
560d2020-4620-4cd0-a39f-1f740350b859,7ade7517-e2d0-4374-9c1a-e3565540cf30,1761215861891861267,8.733749,1.550674,2.748489,0.020996,-0.003906,1.007812,-1.5209955180610175,-2.3467757343927906,76.2023098692717,0.7865205407142639,-0.007924936711788177,-0.023077378049492836,0.6170818209648132
560d2020-4620-4cd0-a39f-1f740350b859,7ade7517-e2d0-4374-9c1a-e3565540cf30,1761215861901437267,7.820129,1.796722,2.87056,0.021484,0.000488,1.032715,-1.505477384016931,-2.264116193835256,76.20839699360499,0.7865081429481506,-0.00743971299380064,-0.022526435554027557,0.6171240210533142
560d2020-4620-4cd0-a39f-1f740350b859,7ade7517-e2d0-4374-9c1a-e3565540cf30,1761215861911013267,7.146835,2.649307,2.809525,0.031738,-0.016602,1.025391,-1.4835376618422864,-2.184933195210708,76.25590856476174,0.7862725853919983,-0.0070050619542598724,-0.021952597424387932,0.617449939250946
560d2020-4620-4cd0-a39f-1f740350b859,7ade7517-e2d0-4374-9c1a-e3565540cf30,1761215861920589267,6.477356,4.238129,2.138138,0.039551,-0.015137,1.020996,-1.4505465990815483,-2.115266729994449,76.28217280099578,0.7861510515213013,-0.006699729710817337,-0.021352609619498253,0.6176290512084961
560d2020-4620-4cd0-a39f-1f740350b859,7ade7517-e2d0-4374-9c1a-e3565540cf30,1761215861930165267,5.500793,5.031586,1.283646,0.039551,-0.016602,1.004395,-1.41666742773142,-2.056418914057765,76.26888560572114,0.7862402200698853,-0.006480869837105274,-0.020802434533834457,0.617536723613739
560d2020-4620-4cd0-a39f-1f740350b859,7ade7517-e2d0-4374-9c1a-e3565540cf30,1761215861939773267,3.913879,4.177094,-0.91362,0.026367,-0.025391,0.996582,-1.3384697133557368,-1.9668935839266752,76.36415889391523,0.7857569456100464,-0.006271359510719776,-0.019788917154073715,0.618186891078949
560d2020-4620-4cd0-a39f-1f740350b859,7ade7517-e2d0-4374-9c1a-e3565540cf30,1761215861949385267,2.754211,3.078461,-1.096725,0.021484,-0.01709,1.0,-1.3067822080582474,-1.9376458399307777,76.32428508591205,0.7859826683998108,-0.0062484415248036385,-0.019411757588386536,0.6179121136665344
560d2020-4620-4cd0-a39f-1f740350b859,7ade7517-e2d0-4374-9c1a-e3565540cf30,1761215861958997267,1.960754,1.308441,-1.462936,0.008789,-0.038574,0.988769,-1.290104874768124,-1.9197447857696042,76.28669583049415,0.7861912846565247,-0.006221849471330643,-0.019198846071958542,0.6176535487174988
560d2020-4620-4cd0-a39f-1f740350b859,7ade7517-e2d0-4374-9c1a-e3565540cf30,1761215861968609267,1.533508,0.270844,-1.096725,0.009277,-0.02002,1.002441,-1.2824132975100424,-1.9006719858550531,76.26147292971461,0.786331832408905,-0.006136606447398663,-0.019041970372200012,0.6174802780151367
560d2020-4620-4cd0-a39f-1f740350b859,7ade7517-e2d0-4374-9c1a-e3565540cf30,1761215861978221267,1.472473,-0.034332,-1.03569,0.006836,-0.018066,1.01123,-1.2729592430033914,-1.881880018402664,76.23638170848905,0.7864718437194824,-0.00606269296258688,-0.018874555826187134,0.6173078417778015
560d2020-4620-4cd0-a39f-1f740350b859,7ade7517-e2d0-4374-9c1a-e3565540cf30,1761215861986205267,1.411438,-0.156403,-0.608444,-0.000977,-0.007813,1.027344,-1.2639370183122824,-1.8624635575542678,76.22349989243703,0.7865460515022278,-0.005980099551379681,-0.018707413226366043,0.6172192096710205
560d2020-4620-4cd0-a39f-1f740350b859,7ade7517-e2d0-4374-9c1a-e3565540cf30,1761215861994189267,1.04332,-0.28038,-0.120163,0.010254,-0.027832,1.02002,-1.2617178065607093,-1.854643422511205,76.22721198686183,0.7865277528762817,-0.005937756970524788,-0.018650270998477936,0.6172446608543396
560d2020-4620-4cd0-a39f-1f740350b859,7ade7517-e2d0-4374-9c1a-e3565540cf30,1761215862002173267,0.984192,-0.217438,-0.120163,0.023926,-0.006348,1.027832,-1.2629900723845182,-1.845706111202152,76.29400283916043,0.786169171333313,-0.0058586932718753815,-0.018614303320646286,0.6177031993865967
560d2020-4620-4cd0-a39f-1f740350b859,7ade7517-e2d0-4374-9c1a-e3565540cf30,1761215862010157267,0.1297,0.270844,-0.486374,0.035645,-0.037109,1.016602,-1.2688638160110874,-1.8474326697456338,76.3324624337475,0.7859605550765991,-0.005832617171108723,-0.018665861338377,0.6179672479629517
560d2020-4620-4cd0-a39f-1f740350b859,7ade7517-e2d0-4374-9c1a-e3565540cf30,1761215862022166267,-0.60463,0.391006,-1.218796,0.037109,-0.032227,1.008789,-1.2710749250507765,-1.847338362323069,76.31412686486327,0.7860590815544128,-0.005823034793138504,-0.018679587170481682,0.6178416013717651
560d2020-4620-4cd0-a39f-1f740350b859,7ade7517-e2d0-4374-9c1a-e3565540cf30,1761215862034177267,-1.152039,-0.278473,-2.073288,0.038086,-0.032715,1.0,-1.2784090284672491,-1.8547906879414586,76.30371846842068,0.7861127257347107,-0.005836331285536289,-0.018769528716802597,0.6177704930305481
560d2020-4620-4cd0-a39f-1f740350b859,7ade7517-e2d0-4374-9c1a-e3565540cf30,1761215862046188267,-1.945496,-0.522614,-2.866745,0.038574,-0.036133,1.027832,-1.2909302552825885,-1.8731907928745888,76.31613629889097,0.7860405445098877,-0.005893038585782051,-0.018955213949084282,0.6178560853004456
560d2020-4620-4cd0-a39f-1f740350b859,7ade7517-e2d0-4374-9c1a-e3565540cf30,1761215862058199267,-2.128601,-1.377106,-3.171921,0.044434,-0.032715,1.037598,-1.3113281772217429,-1.891333463132394,76.28756982976202,0.786188006401062,-0.005912323482334614,-0.0191914364695549,0.6176610589027405
560d2020-4620-4cd0-a39f-1f740350b859,7ade7517-e2d0-4374-9c1a-e3565540cf30,1761215862066205267,-1.274109,-2.170563,-4.087448,0.032715,-0.035645,1.036621,-1.3633512819639082,-1.9211067470536307,76.2127231392563,0.7865771651268005,-0.005849114619195461,-0.01970493793487549,0.6171497702598572
560d2020-4620-4cd0-a39f-1f740350b859,7ade7517-e2d0-4374-9c1a-e3565540cf30,1761215862074208267,-0.358582,-1.926422,-4.270554,0.040039,-0.037109,1.040039,-1.387722708091872,-1.9283880636712725,76.16076226804635,0.7868514060974121,-0.005776882171630859,-0.019908804446458817,0.616794228553772
560d2020-4620-4cd0-a39f-1f740350b859,7ade7517-e2d0-4374-9c1a-e3565540cf30,1761215862082211267,0.192642,-1.623154,-3.538132,0.040039,-0.037598,1.046875,-1.408961470865554,-1.9276531045434504,76.10935489418236,0.7871244549751282,-0.005666511133313179,-0.020048147067427635,0.6164422035217285
560d2020-4620-4cd0-a39f-1f740350b859,7ade7517-e2d0-4374-9c1a-e3565540cf30,1761215862090214267,0.862122,-1.194,-3.660202,0.026367,-0.041992,1.038086,-1.4205064507651834,-1.92427796496315,76.05655905975381,0.7874069809913635,-0.005590477026998997,-0.020106729120016098,0.616080105304718
560d2020-4620-4cd0-a39f-1f740350b859,7ade7517-e2d0-4374-9c1a-e3565540cf30,1761215862100874267,0.556946,-0.888824,-2.68364,0.013672,-0.033203,1.038086,-1.427540466936311,-1.9164405687123167,76.04782437502273,0.7874541282653809,-0.005500322207808495,-0.020112529397010803,0.6160204410552979
560d2020-4620-4cd0-a39f-1f740350b859,7ade7517-e2d0-4374-9c1a-e3565540cf30,1761215862111534267,0.617981,-0.339508,-2.378464,0.026855,-0.044434,1.03418,-1.4334757743632478,-1.9124227221512105,76.09616066960884,0.7871938943862915,-0.005432305857539177,-0.02013402059674263,0.6163527965545654
560d2020-4620-4cd0-a39f-1f740350b859,7ade7517-e2d0-4374-9c1a-e3565540cf30,1761215862122194267,0.680923,0.207901,-2.012253,0.03125,-0.022949,1.023926,-1.4371794118997656,-1.9054086871540874,76.08024110410828,0.7872801423072815,-0.005366980098187923,-0.0201210118830204,0.6162436604499817
560d2020-4620-4cd0-a39f-1f740350b859,7ade7517-e2d0-4374-9c1a-e3565540cf30,1761215862132857267,0.495911,0.759125,-1.523972,0.025879,-0.032227,1.033203,-1.4373036183525376,-1.899415555028957,76.07351347849679,0.7873173952102661,-0.005326300859451294,-0.020089341327548027,0.6161975264549255
560d2020-4620-4cd0-a39f-1f740350b859,7ade7517-e2d0-4374-9c1a-e3565540cf30,1761215862143519267,1.106262,1.308441,-1.096725,0.039062,-0.028809,1.029785,-1.4244289721498962,-1.8916640897402253,76.08755878430135,0.787245512008667,-0.005339811556041241,-0.01995987817645073,0.6162934303283691
560d2020-4620-4cd0-a39f-1f740350b859,7ade7517-e2d0-4374-9c1a-e3565540cf30,1761215862154181267,0.984192,1.552582,-1.829147,0.036621,-0.027832,1.036621,-1.415991276020032,-1.8818189547259403,76.06456213904987,0.7873724102973938,-0.005321516655385494,-0.019847922027111053,0.6161350607872009
560d2020-4620-4cd0-a39f-1f740350b859,7ade7517-e2d0-4374-9c1a-e3565540cf30,1761215862162181267,2.080917,1.977921,-1.890182,0.030762,-0.030762,1.039062,-1.3964348656774317,-1.8477390150278032,76.02655257856993,0.7875861525535583,-0.005198904313147068,-0.019528675824403763,0.6158730387687683
560d2020-4620-4cd0-a39f-1f740350b859,7ade7517-e2d0-4374-9c1a-e3565540cf30,1761215862170184267,2.813339,1.73378,-2.073288,0.04541,-0.027344,1.032715,-1.3864442015868244,-1.822961313072374,76.01325722933028,0.7876636385917664,-0.005084493197500706,-0.01932631805539131,0.6157812476158142
560d2020-4620-4cd0-a39f-1f740350b859,7ade7517-e2d0-4374-9c1a-e3565540cf30,1761215862178187267,3.05748,1.977921,-2.073288,0.029297,-0.025879,1.021973,-1.373743638576889,-1.7947203560643785,76.00213003487234,0.7877304553985596,-0.004960416816174984,-0.01908685266971588,0.6157042980194092
560d2020-4620-4cd0-a39f-1f740350b859,7ade7517-e2d0-4374-9c1a-e3565540cf30,1761215862186190267,3.059387,2.223969,-2.012253,0.029785,-0.017578,1.013672,-1.3572720153381432,-1.7629351961871567,75.97610995516874,0.7878783941268921,-0.0048346249386668205,-0.018801823258399963,0.6155247688293457
560d2020-4620-4cd0-a39f-1f740350b859,7ade7517-e2d0-4374-9c1a-e3565540cf30,1761215862196860267,2.996445,2.775192,-1.768112,0.034668,-0.018555,1.02002,-1.338092507107376,-1.7312252551259637,75.97961460231681,0.7878680229187012,-0.0047189947217702866,-0.018499847501516342,0.6155481338500977
560d2020-4620-4cd0-a39f-1f740350b859,7ade7517-e2d0-4374-9c1a-e3565540cf30,1761215862207530267,3.303528,2.590179,-1.462936,0.013184,-0.026855,1.032227,-1.3108754455066964,-1.6987493045369073,76.02924157761574,0.7876110672950745,-0.004633994773030281,-0.01814035139977932,0.6158881187438965
560d2020-4620-4cd0-a39f-1f740350b859,7ade7517-e2d0-4374-9c1a-e3565540cf30,1761215862218200267,4.03595,2.773285,-0.91362,0.010742,-0.026855,1.038086,-1.282257532662175,-1.660554059803718,76.0489428082966,0.7875158190727234,-0.004522162489593029,-0.017739232629537582,0.6160224080085754
560d2020-4620-4cd0-a39f-1f740350b859,7ade7517-e2d0-4374-9c1a-e3565540cf30,1761215862228864267,4.156113,2.958298,-0.730515,0.025391,-0.022461,1.035156,-1.2592988759082329,-1.6186756390646435,76.07404098167649,0.7873910069465637,-0.004353905096650124,-0.017357366159558296,0.6161940097808838
560d2020-4620-4cd0-a39f-1f740350b859,7ade7517-e2d0-4374-9c1a-e3565540cf30,1761215862239531267,4.644394,3.137589,-0.486374,0.019531,-0.011719,1.040039,-1.2338367081224892,-1.5737668312898143,76.11033812573669,0.7872065305709839,-0.004176798276603222,-0.016942337155342102,0.6164425015449524
560d2020-4620-4cd0-a39f-1f740350b859,7ade7517-e2d0-4374-9c1a-e3565540cf30,1761215862250198267,4.770279,3.137589,-0.608444,0.029785,-0.004395,1.039062,-1.2054470001070996,-1.5208179892001756,76.13118470569434,0.787106454372406,-0.003962699323892593,-0.016463296487927437,0.6165846586227417
560d2020-4620-4cd0-a39f-1f740350b859,7ade7517-e2d0-4374-9c1a-e3565540cf30,1761215862258219267,4.524231,2.223969,-1.340866,0.018555,0.003906,1.031738,-1.170006632826518,-1.418507454914126,76.10172834927455,0.7872846126556396,-0.0034545157104730606,-0.015668656677007675,0.6163809299468994
560d2020-4620-4cd0-a39f-1f740350b859,7ade7517-e2d0-4374-9c1a-e3565540cf30,1761215862266242267,3.850937,2.161026,-1.157761,0.04248,-0.006348,1.015625,-1.1618258959353627,-1.3752043155204436,76.0780243867975,0.7874191999435425,-0.0032041342929005623,-0.015378938056528568,0.6162176132202148
560d2020-4620-4cd0-a39f-1f740350b859,7ade7517-e2d0-4374-9c1a-e3565540cf30,1761215862274265267,2.876282,2.101898,-1.829147,0.03125,-0.006348,1.024902,-1.147971579787134,-1.3355436366527391,76.05163002928549,0.7875683307647705,-0.003009525127708912,-0.01506983395665884,0.6160356402397156
560d2020-4620-4cd0-a39f-1f740350b859,7ade7517-e2d0-4374-9c1a-e3565540cf30,1761215862282288267,1.777649,2.162933,-1.585007,0.023438,0.006348,1.022461,-1.1297527521126614,-1.3047221836586322,76.0607474440499,0.7875257730484009,-0.002894422970712185,-0.014779203571379185,0.616097629070282
560d2020-4620-4cd0-a39f-1f740350b859,7ade7517-e2d0-4374-9c1a-e3565540cf30,1761215862292926267,-0.116348,1.85585,-1.707077,0.035156,-0.000977,1.007812,-1.1164869375189388,-1.2887269303400928,76.08159440784955,0.787417471408844,-0.002853142097592354,-0.014602581039071083,0.6162405014038086
560d2020-4620-4cd0-a39f-1f740350b859,7ade7517-e2d0-4374-9c1a-e3565540cf30,1761215862303564267,-0.968933,1.430511,-1.157761,0.028809,-0.004883,1.023438,-1.108340571515338,-1.289033485799168,76.11589965936125,0.7872339487075806,-0.0028947023674845695,-0.014549118466675282,0.6164759993553162
560d2020-4620-4cd0-a39f-1f740350b859,7ade7517-e2d0-4374-9c1a-e3565540cf30,1761215862314202267,-2.372742,1.430511,-1.157761,0.016602,0.002441,1.01709,-1.0982319048519413,-1.2978577888318719,76.13555531262887,0.7871283292770386,-0.003007226623594761,-0.014527647756040096,0.6166107654571533
560d2020-4620-4cd0-a39f-1f740350b859,7ade7517-e2d0-4374-9c1a-e3565540cf30,1761215862324853267,-3.471375,1.369476,-0.730515,0.028809,-0.03418,1.000488,-1.0880642249542998,-1.3227940882241909,76.13518363535444,0.7871283888816833,-0.0032333005219697952,-0.014591939747333527,0.6166080832481384
560d2020-4620-4cd0-a39f-1f740350b859,7ade7517-e2d0-4374-9c1a-e3565540cf30,1761215862335504267,-4.081726,1.918793,-0.181198,0.016113,-0.032227,0.992676,-1.075569894687023,-1.3616637373368092,76.10734437298407,0.7872746586799622,-0.003571148030459881,-0.014714344404637814,0.6164165139198303
560d2020-4620-4cd0-a39f-1f740350b859,7ade7517-e2d0-4374-9c1a-e3565540cf30,1761215862346155267,-4.631042,2.407074,0.001907,0.015625,-0.052246,0.994141,-1.0547284843112679,-1.406285248708464,76.07848003835905,0.7874266505241394,-0.003993605263531208,-0.014810114167630672,0.6162174344062805
560d2020-4620-4cd0-a39f-1f740350b859,7ade7517-e2d0-4374-9c1a-e3565540cf30,1761215862356838267,-4.693985,3.686905,0.551224,0.012695,-0.030273,0.995117,-0.9973518432408002,-1.5066031847726267,76.08097332333271,0.7874071002006531,-0.004991287365555763,-0.014955257996916771,0.6162316203117371
560d2020-4620-4cd0-a39f-1f740350b859,7ade7517-e2d0-4374-9c1a-e3565540cf30,1761215862367522267,-4.264832,3.932953,0.673294,0.023438,-0.044434,1.018555,-0.9642035008091391,-1.549647282488811,76.12883369516733,0.7871480584144592,-0.005459125153720379,-0.014961170963943005,0.6165583729743958
560d2020-4620-4cd0-a39f-1f740350b859,7ade7517-e2d0-4374-9c1a-e3565540cf30,1761215862378206267,-3.77655,4.299164,1.10054,0.021973,-0.029297,1.027832,-0.9307067161420386,-1.586044216461665,76.19361494298629,0.7867987155914307,-0.0058809733018279076,-0.0149301802739501,0.6170010566711426
560d2020-4620-4cd0-a39f-1f740350b859,7ade7517-e2d0-4374-9c1a-e3565540cf30,1761215862386197267,-3.229141,4.968643,1.344681,0.007324,-0.046875,1.037598,-0.8896232548915076,-1.6220606173605163,76.24337734653898,0.7865310311317444,-0.006343072280287743,-0.014844721183180809,0.6173396706581116
560d2020-4620-4cd0-a39f-1f740350b859,7ade7517-e2d0-4374-9c1a-e3565540cf30,1761215862394187267,-2.250671,5.214691,1.527786,0.013184,-0.045898,1.038574,-0.8414324565677324,-1.6526715981557665,76.27035669559497,0.7863876223564148,-0.006809377111494541,-0.014680418185889721,0.6175212860107422
560d2020-4620-4cd0-a39f-1f740350b859,7ade7517-e2d0-4374-9c1a-e3565540cf30,1761215862402177267,-1.88446,4.909515,1.344681,0.017578,-0.050293,1.032715,-0.7979678817670999,-1.6781524832845545,76.30421616172748,0.7862071394920349,-0.007214203476905823,-0.014521550387144089,0.6177502274513245
560d2020-4620-4cd0-a39f-1f740350b859,7ade7517-e2d0-4374-9c1a-e3565540cf30,1761215862410167267,-1.029968,4.84848,1.405716,0.02002,-0.036133,1.037598,-0.756030455048945,-1.6976317897751105,76.32412263394639,0.7861024141311646,-0.007571459747850895,-0.014340118505060673,0.6178834438323975
560d2020-4620-4cd0-a39f-1f740350b859,7ade7517-e2d0-4374-9c1a-e3565540cf30,1761215862420954267,-0.419617,5.214691,1.893997,0.009277,-0.055664,1.030762,-0.7132346294802983,-1.7065908086530723,76.3245177599633,0.7861043810844421,-0.007863634265959263,-0.014094860292971134,0.617883026599884
560d2020-4620-4cd0-a39f-1f740350b859,7ade7517-e2d0-4374-9c1a-e3565540cf30,1761215862431741267,0.371933,4.911423,1.588821,-0.003418,-0.04541,1.044922,-0.6674268152445332,-1.71380627608932,76.31513322442633,0.7861595749855042,-0.00816127099096775,-0.01381884329020977,0.6178150773048401
560d2020-4620-4cd0-a39f-1f740350b859,7ade7517-e2d0-4374-9c1a-e3565540cf30,1761215862442528267,0.923157,4.421234,1.649857,0.010254,-0.046875,1.039551,-0.6215185362379091,-1.7117814837233174,76.30873603831748,0.7861998081207275,-0.008395642042160034,-0.013492504134774208,0.6177679896354675
560d2020-4620-4cd0-a39f-1f740350b859,7ade7517-e2d0-4374-9c1a-e3565540cf30,1761215862453281267,2.204895,4.421234,0.97847,0.015137,-0.051758,1.049805,-0.5447076691110939,-1.6910324900970766,76.3111594864655,0.7861982583999634,-0.008667084388434887,-0.012853856198489666,0.6177798509597778
560d2020-4620-4cd0-a39f-1f740350b859,7ade7517-e2d0-4374-9c1a-e3565540cf30,1761215862464036267,2.388,4.360199,1.283646,0.009766,-0.058594,1.050293,-0.5062094907719088,-1.6821915898032263,76.3237425649747,0.7861357927322388,-0.008812593296170235,-0.01254303753376007,0.617863655090332
560d2020-4620-4cd0-a39f-1f740350b859,7ade7517-e2d0-4374-9c1a-e3565540cf30,1761215862474791267,2.998352,3.749847,0.368118,0.008301,-0.037109,1.072266,-0.4762551023604159,-1.6590408781258927,76.38995701031264,0.7857847213745117,-0.008808208629488945,-0.012217825278639793,0.6183165907859802
560d2020-4620-4cd0-a39f-1f740350b859,7ade7517-e2d0-4374-9c1a-e3565540cf30,1761215862482742267,3.667831,3.686905,0.246048,0.025879,-0.044922,1.07373,-0.45001317241692906,-1.6335234279602087,76.42770583881614,0.7855868339538574,-0.008770886808633804,-0.011903099715709686,0.6185747385025024
560d2020-4620-4cd0-a39f-1f740350b859,7ade7517-e2d0-4374-9c1a-e3565540cf30,1761215862490696267,3.913879,3.810883,-0.486374,0.010742,-0.058594,1.068848,-0.42599329967908794,-1.6043893727711318,76.4106082837566,0.7856850028038025,-0.008702528662979603,-0.011579885147511959,0.6184571385383606
560d2020-4620-4cd0-a39f-1f740350b859,7ade7517-e2d0-4374-9c1a-e3565540cf30,1761215862498650267,5.378723,3.688812,-1.03569,0.008301,-0.04834,1.053711,-0.3957522244313113,-1.5706918346094685,76.40383713663722,0.785728394985199,-0.008635341189801693,-0.011190184392035007,0.618410050868988
560d2020-4620-4cd0-a39f-1f740350b859,7ade7517-e2d0-4374-9c1a-e3565540cf30,1761215862506604267,5.989075,3.688812,-1.585007,0.007813,-0.044922,1.055176,-0.36948139823256776,-1.5266878239609645,76.39101449570441,0.7858049869537354,-0.008476571179926395,-0.010771655477583408,0.6183224320411682
560d2020-4620-4cd0-a39f-1f740350b859,7ade7517-e2d0-4374-9c1a-e3565540cf30,1761215862517171267,7.270813,4.238129,-2.561569,0.012207,-0.049805,1.058105,-0.33543697750965096,-1.4707776351781512,76.36575993949025,0.7859503030776978,-0.008279099129140377,-0.010234718210995197,0.6181495189666748
560d2020-4620-4cd0-a39f-1f740350b859,7ade7517-e2d0-4374-9c1a-e3565540cf30,1761215862527738267,8.550644,4.911423,-2.988815,0.006836,-0.047852,1.0625,-0.2966411888918794,-1.407778869004697,76.33305960140927,0.7861363887786865,-0.008059009909629822,-0.009626518934965134,0.6179254651069641
560d2020-4620-4cd0-a39f-1f740350b859,7ade7517-e2d0-4374-9c1a-e3565540cf30,1761215862538305267,9.710312,4.911423,-3.660202,0.001465,-0.02832,1.04541,-0.2569472779320312,-1.3321104487405582,76.29004816213192,0.7863786816596985,-0.007757275365293026,-0.0089432867243886,0.6176312565803528
560d2020-4620-4cd0-a39f-1f740350b859,7ade7517-e2d0-4374-9c1a-e3565540cf30,1761215862548926267,11.543274,5.214691,-3.782272,-0.007812,-0.035645,1.030273,-0.15868991772434568,-1.144705058644004,76.25624079133259,0.7865835428237915,-0.007002891041338444,-0.007256886921823025,0.6174014806747437
560d2020-4620-4cd0-a39f-1f740350b859,7ade7517-e2d0-4374-9c1a-e3565540cf30,1761215862559545267,11.846542,4.846573,-3.599167,-0.006836,-0.039551,1.036621,-0.11127462100649506,-1.0453486458249246,76.20386921433814,0.7868756055831909,-0.006579257547855377,-0.006393106654286385,0.6170434355735779
560d2020-4620-4cd0-a39f-1f740350b859,7ade7517-e2d0-4374-9c1a-e3565540cf30,1761215862570164267,12.031555,4.421234,-3.293991,-0.018066,-0.040527,1.025879,-0.06414142728883586,-0.9472825129477541,76.24188641830824,0.7866795659065247,-0.006157808005809784,-0.0055434443056583405,0.6173059344291687
560d2020-4620-4cd0-a39f-1f740350b859,7ade7517-e2d0-4374-9c1a-e3565540cf30,1761215862578175267,11.846542,4.911423,-2.80571,-0.007812,-0.01416,1.016113,-0.018990945742829342,-0.8457703353553355,76.26208307724515,0.7865784168243408,-0.005703313276171684,-0.004687642678618431,0.61744624376297
560d2020-4620-4cd0-a39f-1f740350b859,7ade7517-e2d0-4374-9c1a-e3565540cf30,1761215862586185267,11.663437,4.423141,-2.195358,-0.021484,-0.01709,1.027832,0.02373548434695476,-0.7462410743667784,76.24038972933165,0.7867016196250916,-0.005251073278486729,-0.0038570770993828773,0.6172990202903748
560d2020-4620-4cd0-a39f-1f740350b859,7ade7517-e2d0-4374-9c1a-e3565540cf30,1761215862594195267,10.932922,4.72641,-2.195358,-0.007324,-0.022949,1.025391,0.07241947483492767,-0.6495385815621979,76.22405249958652,0.786794900894165,-0.0048498716205358505,-0.0030012205243110657,0.6171881556510925
560d2020-4620-4cd0-a39f-1f740350b859,7ade7517-e2d0-4374-9c1a-e3565540cf30,1761215862602205267,10.259628,4.785538,-1.951218,-0.019043,0.000977,1.022461,0.11619694072097284,-0.5602776611551284,76.22053707308066,0.7868176698684692,-0.004472854547202587,-0.002219739370048046,0.6171652674674988
560d2020-4620-4cd0-a39f-1f740350b859,7ade7517-e2d0-4374-9c1a-e3565540cf30,1761215862612898267,9.222031,4.602432,-1.646042,-0.010742,-0.009766,1.014648,0.1604078685051642,-0.4770048776309689,76.20894123350864,0.7868828773498535,-0.004139343276619911,-0.0014672596007585526,0.6170867085456848
560d2020-4620-4cd0-a39f-1f740350b859,7ade7517-e2d0-4374-9c1a-e3565540cf30,1761215862623591267,8.613586,3.688812,-1.829147,-0.000977,-0.004395,1.022949,0.19630594691814643,-0.4014409594574642,76.17759879345783,0.7870533466339111,-0.0038139987736940384,-0.0008127838373184204,0.6168726086616516
560d2020-4620-4cd0-a39f-1f740350b859,7ade7517-e2d0-4374-9c1a-e3565540cf30,1761215862634284267,8.247375,3.383636,-1.401901,-0.011719,-0.000977,1.032715,0.22645062320470744,-0.3245248739536667,76.12327729279701,0.7873467206954956,-0.003448083996772766,-0.00019004195928573608,0.616500735282898
560d2020-4620-4cd0-a39f-1f740350b859,7ade7517-e2d0-4374-9c1a-e3565540cf30,1761215862642272267,8.245468,3.015518,-1.707077,-0.001465,0.015137,1.016113,0.25525687358575744,-0.2467142002712367,76.14264385471704,0.7872429490089417,-0.003068508580327034,0.00042599067091941833,0.6166352033615112
560d2020-4620-4cd0-a39f-1f740350b859,7ade7517-e2d0-4374-9c1a-e3565540cf30,1761215862650260267,8.245468,3.320694,-2.073288,-0.019043,0.013184,1.003906,0.2849647185368792,-0.16732332439462877,76.14480638991202,0.7872310876846313,-0.0026829801499843597,0.001057252287864685,0.6166512966156006
560d2020-4620-4cd0-a39f-1f740350b859,7ade7517-e2d0-4374-9c1a-e3565540cf30,1761215862658248267,8.18634,2.95639,-1.829147,-0.006836,0.019043,1.003906,0.31386969103762086,-0.08754309844094262,76.11364058206216,0.7873979210853577,-0.0022899899631738663,0.001685773953795433,0.6164385080337524
560d2020-4620-4cd0-a39f-1f740350b859,7ade7517-e2d0-4374-9c1a-e3565540cf30,1761215862666236267,7.881165,2.346039,-1.890182,-0.015625,0.01416,1.004395,0.3374276606492723,-0.00923908127758836,76.09709552048426,0.7874855399131775,-0.0018783388659358025,0.002269153483211994,0.616326093673706
560d2020-4620-4cd0-a39f-1f740350b859,7ade7517-e2d0-4374-9c1a-e3565540cf30,1761215862676890267,7.331848,2.101898,-1.951218,-0.000977,0.012207,1.008301,0.35830423432212805,0.0653785358421528,76.10483678892352,0.7874420881271362,-0.0014780322089791298,0.002813846804201603,0.6163803935050964
560d2020-4620-4cd0-a39f-1f740350b859,7ade7517-e2d0-4374-9c1a-e3565540cf30,1761215862687544267,6.660461,1.735687,-1.829147,-0.008301,0.023926,1.001465,0.3756539103095982,0.13067715236471517,76.1125712931552,0.7873985171318054,-0.0011228611692786217,0.0032842280343174934,0.6164345145225525
560d2020-4620-4cd0-a39f-1f740350b859,7ade7517-e2d0-4374-9c1a-e3565540cf30,1761215862698198267,5.926132,0.879288,-1.401901,-0.013184,0.035156,1.014648,0.38969381485533633,0.19446978346136387,76.11256127664046,0.7873963713645935,-0.0007600430399179459,0.003723863512277603,0.6164352893829346
560d2020-4620-4cd0-a39f-1f740350b859,7ade7517-e2d0-4374-9c1a-e3565540cf30,1761215862708850267,3.974915,0.453949,-0.91362,-0.002441,0.029785,1.012207,0.39681768311963395,0.297612756774699,76.08208915338417,0.7875565886497498,-8.84784385561943e-05,0.004327676258981228,0.6162270903587341
560d2020-4620-4cd0-a39f-1f740350b859,7ade7517-e2d0-4374-9c1a-e3565540cf30,1761215862719501267,2.449036,0.82016,-0.852585,-0.002441,0.04541,1.002441,0.4006776027180609,0.33463961143563115,76.06292576679022,0.7876580953598022,0.00014600437134504318,0.004553291015326977,0.616095781326294
560d2020-4620-4cd0-a39f-1f740350b859,7ade7517-e2d0-4374-9c1a-e3565540cf30,1761215862730152267,0.984192,0.69809,-0.486374,-0.016113,0.024902,1.005371,0.41000451037202185,0.35187407904628787,76.04790336748873,0.7877377867698669,0.00021494179964065552,0.004710029810667038,0.6159926056861877
560d2020-4620-4cd0-a39f-1f740350b859,7ade7517-e2d0-4374-9c1a-e3565540cf30,1761215862738165267,-0.238419,1.001358,-0.059128,-0.018555,0.016113,1.007812,0.41177514597409065,0.3589852544567851,76.07152887534488,0.7876104116439819,0.0002533271908760071,0.0047604795545339584,0.6161550879478455
560d2020-4620-4cd0-a39f-1f740350b859,7ade7517-e2d0-4374-9c1a-e3565540cf30,1761215862746180267,-1.455307,1.184464,0.612259,-0.018066,0.020508,1.017578,0.43001235404800886,0.35477080025477387,76.14955715694428,0.7871900796890259,0.00012298766523599625,0.004863251931965351,0.6166912317276001
560d2020-4620-4cd0-a39f-1f740350b859,7ade7517-e2d0-4374-9c1a-e3565540cf30,1761215862754195267,-2.557755,1.001358,0.97847,-0.011719,0.022461,1.013184,0.4422054124292561,0.34106070908727204,76.171714176358,0.7870708703994751,-3.7756748497486115e-05,0.004873224534094334,0.6168432831764221
560d2020-4620-4cd0-a39f-1f740350b859,7ade7517-e2d0-4374-9c1a-e3565540cf30,1761215862762210267,-2.677917,1.430511,1.405716,-0.017578,0.016602,1.017578,0.455824722833975,0.32568220602792797,76.19454302916131,0.786948025226593,-0.00021767150610685349,0.004883945919573307,0.6169999241828918
560d2020-4620-4cd0-a39f-1f740350b859,7ade7517-e2d0-4374-9c1a-e3565540cf30,1761215862770238267,-3.288269,1.796722,1.405716,-0.007324,0.023438,1.026855,0.4730413468990945,0.30589690627994937,76.22417405133749,0.7867885231971741,-0.00044751353561878204,0.004895536229014397,0.6172030568122864
560d2020-4620-4cd0-a39f-1f740350b859,7ade7517-e2d0-4374-9c1a-e3565540cf30,1761215862778266267,-4.081726,2.040863,1.710892,-0.004395,0.024902,1.044434,0.48875113222121064,0.27906865163880246,76.23886809218344,0.7867097854614258,-0.0007169581949710846,0.004858812317252159,0.6173034906387329
560d2020-4620-4cd0-a39f-1f740350b859,7ade7517-e2d0-4374-9c1a-e3565540cf30,1761215862786294267,-3.534317,1.977921,1.771927,0.000488,0.016113,1.041016,0.5043893525668182,0.25321547789707244,76.24546048891591,0.7866746187210083,-0.0009789718315005302,0.0048268502578139305,0.6173481345176697
560d2020-4620-4cd0-a39f-1f740350b859,7ade7517-e2d0-4374-9c1a-e3565540cf30,1761215862794322267,-3.534317,2.161026,1.649857,-0.019531,0.018555,1.04541,0.5225591000153169,0.22955016818990753,76.24106269646407,0.7866984605789185,-0.001239139586687088,0.004824142903089523,0.6173173189163208
560d2020-4620-4cd0-a39f-1f740350b859,7ade7517-e2d0-4374-9c1a-e3565540cf30,1761215862804980267,-3.959656,2.529144,1.527786,-0.022461,0.009277,1.035645,0.5462242619522097,0.2002934287775534,76.25159402676853,0.7866418361663818,-0.0015679271891713142,0.004828860051929951,0.6173886656761169
560d2020-4620-4cd0-a39f-1f740350b859,7ade7517-e2d0-4374-9c1a-e3565540cf30,1761215862815638267,-3.961563,1.489639,1.649857,-0.013184,-0.001953,1.046875,0.5633724431678225,0.17050922406728106,76.2832009154494,0.7864719033241272,-0.0018661003559827805,0.004785597324371338,0.6176046133041382
560d2020-4620-4cd0-a39f-1f740350b859,7ade7517-e2d0-4374-9c1a-e3565540cf30,1761215862826296267,-3.959656,0.69809,1.771927,-0.005859,0.006348,1.033691,0.5713729750514975,0.1323359259947449,76.31072888869734,0.7863245606422424,-0.002172330394387245,0.004634249955415726,0.6177924275398254
560d2020-4620-4cd0-a39f-1f740350b859,7ade7517-e2d0-4374-9c1a-e3565540cf30,1761215862836923267,-4.508972,0.148773,1.649857,-0.016113,0.01416,1.031738,0.5788425882450446,0.06577773815342534,76.43710710380141,0.7856446504592896,-0.002674095332622528,0.004323732107877731,0.618657112121582
560d2020-4620-4cd0-a39f-1f740350b859,7ade7517-e2d0-4374-9c1a-e3565540cf30,1761215862847550267,-4.997253,-0.034332,1.893997,-0.015137,0.013184,1.017578,0.5824380195258763,0.02741906073142599,76.45782814200737,0.7855337858200073,-0.0029572444036602974,0.004140757955610752,0.618797779083252
560d2020-4620-4cd0-a39f-1f740350b859,7ade7517-e2d0-4374-9c1a-e3565540cf30,1761215862858177267,-5.302429,-0.217438,1.283646,-0.003906,0.008789,1.012207,0.5829471039274694,-0.011670046364458876,76.47897439741234,0.7854206562042236,-0.0032286783680319786,0.003932570107281208,0.6189413666725159
560d2020-4620-4cd0-a39f-1f740350b859,7ade7517-e2d0-4374-9c1a-e3565540cf30,1761215862868872267,-6.095886,-0.461578,1.649857,-0.03125,0.015625,1.016602,0.583188097195522,-0.054851971497453744,76.5169879113458,0.7852163910865784,-0.003527180291712284,0.0036998139694333076,0.6192003488540649
560d2020-4620-4cd0-a39f-1f740350b859,7ade7517-e2d0-4374-9c1a-e3565540cf30,1761215862879568267,-6.340027,-0.522614,1.771927,-0.022949,0.018066,1.009277,0.5855019225935931,-0.1040992140022077,76.54574641492957,0.7850620150566101,-0.003878003917634487,0.0034485841169953346,0.61939537525177
560d2020-4620-4cd0-a39f-1f740350b859,7ade7517-e2d0-4374-9c1a-e3565540cf30,1761215862890264267,-7.013321,-0.520706,2.443314,-0.015625,0.026367,1.010742,0.5816290035071943,-0.15393977144313425,76.5560176544911,0.7850075960159302,-0.004198805429041386,0.0031522708013653755,0.6194638609886169
560d2020-4620-4cd0-a39f-1f740350b859,7ade7517-e2d0-4374-9c1a-e3565540cf30,1761215862898243267,-8.966446,-0.097275,2.99263,-0.01416,0.016113,1.0,0.58250676221355,-0.2735037514783046,76.58319317361493,0.7848623991012573,-0.005023205652832985,0.0025107357650995255,0.6196445822715759
560d2020-4620-4cd0-a39f-1f740350b859,7ade7517-e2d0-4374-9c1a-e3565540cf30,1761215862906225267,-9.943008,0.879288,2.87056,0.007324,0.011719,1.018555,0.5841252163580789,-0.34882836245963883,76.62114535009339,0.7846577763557434,-0.005548560991883278,0.0021126586943864822,0.6199007034301758
560d2020-4620-4cd0-a39f-1f740350b859,7ade7517-e2d0-4374-9c1a-e3565540cf30,1761215862914207267,-10.673523,1.430511,2.687454,-0.015137,0.013184,1.025391,0.5965231125676459,-0.43279469455479314,76.62307201593329,0.784647524356842,-0.0061905961483716965,0.0017432011663913727,0.6199087500572205
560d2020-4620-4cd0-a39f-1f740350b859,7ade7517-e2d0-4374-9c1a-e3565540cf30,1761215862922189267,-10.978699,1.674652,2.504349,-0.00293,0.009766,1.029785,0.6099715645583,-0.5215890595765994,76.65712161241761,0.784463107585907,-0.006871734745800495,0.0013528680428862572,0.6201359033584595
560d2020-4620-4cd0-a39f-1f740350b859,7ade7517-e2d0-4374-9c1a-e3565540cf30,1761215862932875267,-11.34491,1.552582,2.321243,-0.001953,0.01416,1.025879,0.6212448446153817,-0.6137549365947609,76.74500224784929,0.7839867472648621,-0.007564370520412922,0.0009254356846213341,0.6207308173179626
560d2020-4620-4cd0-a39f-1f740350b859,7ade7517-e2d0-4374-9c1a-e3565540cf30,1761215862943561267,-11.528015,1.125336,2.382278,-0.007812,-0.001953,1.021484,0.631890052105391,-0.7069375393312429,76.80072321360325,0.7836838364601135,-0.008259756490588188,0.000489450991153717,0.6211047768592834
560d2020-4620-4cd0-a39f-1f740350b859,7ade7517-e2d0-4374-9c1a-e3565540cf30,1761215862954247267,-11.896133,0.333786,2.260208,-0.015137,-0.007813,1.035645,0.6372110150526621,-0.8055662834499673,76.80807736338132,0.7836424708366394,-0.00896307174116373,-9.364448487758636e-06,0.6211473941802979
560d2020-4620-4cd0-a39f-1f740350b859,7ade7517-e2d0-4374-9c1a-e3565540cf30,1761215862964883267,-11.650085,-0.583649,2.565384,-0.015625,-0.005371,1.015137,0.6358810993628239,-0.9020434606487385,76.80150407908476,0.7836760878562927,-0.00961561594158411,-0.000540916807949543,0.6210950016975403
560d2020-4620-4cd0-a39f-1f740350b859,7ade7517-e2d0-4374-9c1a-e3565540cf30,1761215862975518267,-12.016296,-0.888824,2.99263,-0.007324,-0.001465,1.015625,0.6300781426261541,-1.0020377333045025,76.79828402846016,0.7836908102035522,-0.010267991572618484,-0.0011223498731851578,0.6210651993751526
560d2020-4620-4cd0-a39f-1f740350b859,7ade7517-e2d0-4374-9c1a-e3565540cf30,1761215862986153267,-12.384415,-1.256943,2.87056,-0.014648,-0.015625,1.001465,0.6171988832292209,-1.1031478817059208,76.79778615964194,0.7836899757385254,-0.010889631696045399,-0.0017584478482604027,0.6210541725158691
560d2020-4620-4cd0-a39f-1f740350b859,7ade7517-e2d0-4374-9c1a-e3565540cf30,1761215862996864267,-13.60321,-0.766754,3.847122,-0.005371,-0.023926,1.013184,0.5988256942316359,-1.3280784428440078,76.8427053070124,0.7834362387657166,-0.012326988391578197,-0.0031081484630703926,0.621342122554779
560d2020-4620-4cd0-a39f-1f740350b859,7ade7517-e2d0-4374-9c1a-e3565540cf30,1761215863007577267,-14.274597,-0.217438,4.335403,0.000977,-0.016602,0.992187,0.5923488016594879,-1.45134647804665,76.91325778259274,0.7830466032028198,-0.013132181949913502,-0.0038290033116936684,0.6218125820159912
560d2020-4620-4cd0-a39f-1f740350b859,7ade7517-e2d0-4374-9c1a-e3565540cf30,1761215863018290267,-15.130997,0.513077,4.640579,-0.013672,-0.02832,0.993164,0.597374587066105,-1.5820475299596242,76.96332836344885,0.7827668786048889,-0.014050510711967945,-0.004510142840445042,0.6221400499343872
560d2020-4620-4cd0-a39f-1f740350b859,7ade7517-e2d0-4374-9c1a-e3565540cf30,1761215863028938267,-15.861511,0.453949,4.76265,-0.015137,-0.04248,1.020508,0.600796160982581,-1.7205331579739858,76.98187659821548,0.7826566100120544,-0.015014105476439,-0.005241199396550655,0.622250497341156
560d2020-4620-4cd0-a39f-1f740350b859,7ade7517-e2d0-4374-9c1a-e3565540cf30,1761215863039587267,-16.290665,0.513077,4.579544,-0.024902,-0.040039,1.025391,0.6062585954681607,-1.8675738010294436,77.06715267488576,0.7821820974349976,-0.016043439507484436,-0.006014440208673477,0.6228142380714417
560d2020-4620-4cd0-a39f-1f740350b859,7ade7517-e2d0-4374-9c1a-e3565540cf30,1761215863050236267,-16.656876,-0.097275,4.396439,0.007324,-0.035645,1.043945,0.6054624000777388,-2.0168740050048144,77.13221309263731,0.7818153500556946,-0.017054174095392227,-0.0068411873653531075,0.6232392191886902
560d2020-4620-4cd0-a39f-1f740350b859,7ade7517-e2d0-4374-9c1a-e3565540cf30,1761215863058225267,-15.802383,-0.768661,3.847122,-0.000977,-0.041504,1.051758,0.5854981243557839,-2.3033370385075167,77.1585812001517,0.7816418409347534,-0.01889771968126297,-0.008540092036128044,0.6233826875686646
560d2020-4620-4cd0-a39f-1f740350b859,7ade7517-e2d0-4374-9c1a-e3565540cf30,1761215863066216267,-15.008926,-1.073837,3.541946,0.007324,-0.042969,1.050781,0.5713863399126232,-2.438889326056238,77.16939462152361,0.7815665006637573,-0.019744521006941795,-0.009375805035233498,0.6234388947486877
560d2020-4620-4cd0-a39f-1f740350b859,7ade7517-e2d0-4374-9c1a-e3565540cf30,1761215863074207267,-14.213562,-2.170563,2.809525,0.006348,-0.055176,1.04834,0.551042219940319,-2.5680517533233815,77.18772953214818,0.7814491987228394,-0.020512990653514862,-0.010220733471214771,0.6235478520393372
560d2020-4620-4cd0-a39f-1f740350b859,7ade7517-e2d0-4374-9c1a-e3565540cf30,1761215863082198267,-13.544083,-2.111435,2.748489,0.003906,-0.050781,1.040527,0.5266382682349031,-2.6865809233935556,77.20962337979878,0.7813122868537903,-0.02118624374270439,-0.011036342009902,0.623682975769043
560d2020-4620-4cd0-a39f-1f740350b859,7ade7517-e2d0-4374-9c1a-e3565540cf30,1761215863092910267,-12.56752,-2.111435,2.504349,-0.005859,-0.054199,1.04834,0.5051945246496263,-2.797542798637865,77.2329587993827,0.78116774559021,-0.02182355895638466,-0.011791077442467213,0.6238282322883606
560d2020-4620-4cd0-a39f-1f740350b859,7ade7517-e2d0-4374-9c1a-e3565540cf30,1761215863103622267,-11.896133,-1.440048,2.260208,-0.005371,-0.039062,1.03418,0.49075676009959457,-2.9007558086800205,77.31332033047282,0.7807134985923767,-0.02243969589471817,-0.01246726792305708,0.6243616342544556
560d2020-4620-4cd0-a39f-1f740350b859,7ade7517-e2d0-4374-9c1a-e3565540cf30,1761215863114334267,-11.955261,-1.377106,2.138138,-0.003418,-0.060059,1.036621,0.4748009560767715,-3.00919447033946,77.3694578229712,0.7803891897201538,-0.023084964603185654,-0.013178274966776371,0.624728798866272
560d2020-4620-4cd0-a39f-1f740350b859,7ade7517-e2d0-4374-9c1a-e3565540cf30,1761215863124944267,-11.039734,-1.316071,2.321243,-0.016602,-0.053223,1.037109,0.4649883501686399,-3.1116372193786495,77.3835544629148,0.7802948355674744,-0.02372729405760765,-0.013806660659611225,0.6248090267181396
560d2020-4620-4cd0-a39f-1f740350b859,7ade7517-e2d0-4374-9c1a-e3565540cf30,1761215863135556267,-10.614395,-1.745224,2.443314,-0.007812,-0.066895,1.034668,0.4557248976401904,-3.205402400259252,77.40559069964073,0.7801579833030701,-0.024312380701303482,-0.014385802671313286,0.6249443292617798
560d2020-4620-4cd0-a39f-1f740350b859,7ade7517-e2d0-4374-9c1a-e3565540cf30,1761215863146168267,-10.126114,-1.684189,2.565384,0.000977,-0.05957,1.04248,0.44203063740246307,-3.2963237656736943,77.41031817301128,0.7801148295402527,-0.024855969473719597,-0.014976046979427338,0.6249629855155945
560d2020-4620-4cd0-a39f-1f740350b859,7ade7517-e2d0-4374-9c1a-e3565540cf30,1761215863154180267,-8.659363,-1.499176,3.053665,0.000977,-0.071777,1.048828,0.4093400647744961,-3.4605253673645855,77.38540031315974,0.780216634273529,-0.02579881250858307,-0.016088739037513733,0.6247699856758118
560d2020-4620-4cd0-a39f-1f740350b859,7ade7517-e2d0-4374-9c1a-e3565540cf30,1761215863162194267,-7.806778,-1.073837,3.053665,0.008301,-0.054687,1.054688,0.3957846809704103,-3.527613842646455,77.39271948448283,0.7801621556282043,-0.026180550456047058,-0.016548575833439827,0.6248101592063904
560d2020-4620-4cd0-a39f-1f740350b859,7ade7517-e2d0-4374-9c1a-e3565540cf30,1761215863170208267,-7.133484,-1.316071,2.687454,0.003418,-0.060547,1.055664,0.38107907237292993,-3.5924033554941865,77.42684170685831,0.7799614071846008,-0.026536326855421066,-0.017009951174259186,0.6250333189964294
560d2020-4620-4cd0-a39f-1f740350b859,7ade7517-e2d0-4374-9c1a-e3565540cf30,1761215863178222267,-6.401062,-0.827789,2.443314,0.016602,-0.060059,1.053711,0.3642485251837479,-3.6488551162538694,77.45420887135867,0.7797984480857849,-0.026824530214071274,-0.01743890345096588,0.625212550163269
560d2020-4620-4cd0-a39f-1f740350b859,7ade7517-e2d0-4374-9c1a-e3565540cf30,1761215863188883267,-5.485535,-0.400543,2.199173,0.03125,-0.073242,1.048828,0.34756240283174916,-3.698322824652864,77.46397284973335,0.7797326445579529,-0.027068546041846275,-0.017824720591306686,0.6252731680870056
560d2020-4620-4cd0-a39f-1f740350b859,7ade7517-e2d0-4374-9c1a-e3565540cf30,1761215863199544267,-5.119324,-0.034332,1.344681,0.018555,-0.067871,1.048828,0.3344679006720598,-3.7430425027417336,77.53814567383543,0.7793165445327759,-0.027289580553770065,-0.018175560981035233,0.6257719993591309
560d2020-4620-4cd0-a39f-1f740350b859,7ade7517-e2d0-4374-9c1a-e3565540cf30,1761215863210205267,-4.87709,0.333786,0.673294,0.02832,-0.061035,1.02832,0.322700744161332,-3.782357919245574,77.57630227385305,0.7790980935096741,-0.02748650312423706,-0.0184794869273901,0.6260265111923218
560d2020-4620-4cd0-a39f-1f740350b859,7ade7517-e2d0-4374-9c1a-e3565540cf30,1761215863220929267,-5.302429,0.392914,0.123978,0.009766,-0.068848,1.017578,0.31268847783274156,-3.825611797777931,77.54883397960437,0.7792373895645142,-0.027730342000722885,-0.018777266144752502,0.6258334517478943
560d2020-4620-4cd0-a39f-1f740350b859,7ade7517-e2d0-4374-9c1a-e3565540cf30,1761215863231654267,-5.241394,1.186371,-0.303268,0.019043,-0.072754,1.02832,0.3140777811013492,-3.8735583874667463,77.51773495282539,0.779397189617157,-0.028069086372852325,-0.01902211643755436,0.6256119012832642
560d2020-4620-4cd0-a39f-1f740350b859,7ade7517-e2d0-4374-9c1a-e3565540cf30,1761215863242379267,-5.302429,1.552582,-0.91362,-0.001953,-0.072266,1.01123,0.31870499718236495,-3.919007367868982,77.48793699940454,0.7795507907867432,-0.02840842306613922,-0.019231442362070084,0.6253988146781921
560d2020-4620-4cd0-a39f-1f740350b859,7ade7517-e2d0-4374-9c1a-e3565540cf30,1761215863250337267,-5.241394,1.735687,-1.096725,0.000488,-0.061035,1.022461,0.3425367200030653,-4.008551249308776,77.42761461862477,0.7798642516136169,-0.02915782853960991,-0.019542783498764038,0.6249637007713318
560d2020-4620-4cd0-a39f-1f740350b859,7ade7517-e2d0-4374-9c1a-e3565540cf30,1761215863258297267,-4.997253,1.796722,-1.157761,0.010742,-0.066406,1.030273,0.35417203144608383,-4.047866828469388,77.391284089595,0.780055582523346,-0.02949504181742668,-0.01966872438788414,0.6247050762176514
560d2020-4620-4cd0-a39f-1f740350b859,7ade7517-e2d0-4374-9c1a-e3565540cf30,1761215863266257267,-4.814148,1.918793,-1.340866,-0.012207,-0.064453,1.025391,0.3742711619909027,-4.087617620402203,77.39654671837727,0.7800214290618896,-0.029874250292778015,-0.019750040024518967,0.6247271299362183
560d2020-4620-4cd0-a39f-1f740350b859,7ade7517-e2d0-4374-9c1a-e3565540cf30,1761215863274217267,-4.631042,1.918793,-1.03569,-0.000488,-0.054687,1.028809,0.38972410358914306,-4.122808993417802,77.38523605437511,0.7800778150558472,-0.03019995242357254,-0.01983378268778324,0.6246384382247925
560d2020-4620-4cd0-a39f-1f740350b859,7ade7517-e2d0-4374-9c1a-e3565540cf30,1761215863284869267,-3.77655,2.223969,-1.401901,-0.009277,-0.063965,1.035645,0.41015374389054016,-4.153295424044651,77.34007842868586,0.7803205251693726,-0.030526630580425262,-0.019848912954330444,0.6243188381195068
560d2020-4620-4cd0-a39f-1f740350b859,7ade7517-e2d0-4374-9c1a-e3565540cf30,1761215863295521267,-4.205704,2.527237,-1.523972,-0.018066,-0.071777,1.031738,0.4352647690055461,-4.191770607185148,77.32364225417007,0.7804056406021118,-0.03092823550105095,-0.0198831707239151,0.6241915225982666
560d2020-4620-4cd0-a39f-1f740350b859,7ade7517-e2d0-4374-9c1a-e3565540cf30,1761215863306173267,-3.715515,2.895355,-1.585007,-0.009766,-0.072266,1.027344,0.4591305267402361,-4.225618127948806,77.34946868561053,0.7802613377571106,-0.03128420561552048,-0.019912123680114746,0.6243532299995422
560d2020-4620-4cd0-a39f-1f740350b859,7ade7517-e2d0-4374-9c1a-e3565540cf30,1761215863316870267,-3.593445,2.71225,-1.707077,-0.003418,-0.084961,1.037109,0.4820955860779975,-4.2560618652133435,77.30731634357915,0.7804879546165466,-0.03162389621138573,-0.0199100561439991,0.6240529417991638
