section id,recording id,timestamp [ns],gyro x [deg/s],gyro y [deg/s],gyro z [deg/s],acceleration x [g],acceleration y [g],acceleration z [g],roll [deg],pitch [deg],yaw [deg],quaternion w,quaternion x,quaternion y,quaternion z
4f267594-96e5-4969-84f8-417c04045618,b3765975-64a4-4e42-b897-01b5f8e34afa,1760607952978284499,-0.852585,-0.062943,-0.062943,-0.009277,-0.583008,0.82666,0.44656140505513875,-36.6036423363244,124.86052123799472,0.4404975473880768,-0.1486172080039978,-0.2766503393650055,0.8410343527793884
4f267594-96e5-4969-84f8-417c04045618,b3765975-64a4-4e42-b897-01b5f8e34afa,1760607952988953499,-1.03569,-0.001907,-0.062943,-0.017578,-0.599609,0.827148,0.45254450897631576,-36.595148733884685,124.67061305076423,0.44191575050354004,-0.14908677339553833,-0.276318222284317,0.840316116809845
4f267594-96e5-4969-84f8-417c04045618,b3765975-64a4-4e42-b897-01b5f8e34afa,1760607952999622499,-1.157761,0.490189,-0.062943,-0.00293,-0.592285,0.832031,0.45451083455598257,-36.58459836793083,124.46366414790452,0.4434505105018616,-0.14955933392047882,-0.27596351504325867,0.8395398259162903
4f267594-96e5-4969-84f8-417c04045618,b3765975-64a4-4e42-b897-01b5f8e34afa,1760607953010405499,-1.340866,0.181198,-0.673294,-0.019043,-0.604492,0.852051,0.4592906379260051,-36.579558133462655,124.23989616081057,0.4451068639755249,-0.15011341869831085,-0.2756154239177704,0.8386783599853516
4f267594-96e5-4969-84f8-417c04045618,b3765975-64a4-4e42-b897-01b5f8e34afa,1760607953021188499,-1.098633,0.427246,-0.062943,-0.020508,-0.597656,0.839355,0.4661292404301954,-36.57371400784435,124.047749234768,0.4465363025665283,-0.15060271322727203,-0.27529388666152954,0.8379360437393188
4f267594-96e5-4969-84f8-417c04045618,b3765975-64a4-4e42-b897-01b5f8e34afa,1760607953031971499,-0.852585,0.307083,-0.551224,-0.019043,-0.599121,0.828125,0.46896124596995936,-36.56887861485449,123.83162260470465,0.4481287896633148,-0.1511235386133194,-0.2749629020690918,0.8371003866195679
4f267594-96e5-4969-84f8-417c04045618,b3765975-64a4-4e42-b897-01b5f8e34afa,1760607953039914499,-1.403809,0.610352,-0.429153,-0.004883,-0.59082,0.826172,0.4706887008085203,-36.56569114088016,123.57113610225541,0.4500386714935303,-0.15174832940101624,-0.27458858489990234,0.8360850214958191
4f267594-96e5-4969-84f8-417c04045618,b3765975-64a4-4e42-b897-01b5f8e34afa,1760607953047857499,-1.03569,-0.001907,-0.612259,-0.012207,-0.576172,0.828613,0.47479917407114,-36.55969769122449,123.44899479948133,0.45094701647758484,-0.15204742550849915,-0.27436673641204834,0.8356139659881592
4f267594-96e5-4969-84f8-417c04045618,b3765975-64a4-4e42-b897-01b5f8e34afa,1760607953055800499,-1.464844,-0.12207,-0.490189,-0.024414,-0.596191,0.836914,0.476463368753416,-36.5636852345773,123.31591430677088,0.45191606879234314,-0.15239372849464417,-0.274212509393692,0.8350778222084045
4f267594-96e5-4969-84f8-417c04045618,b3765975-64a4-4e42-b897-01b5f8e34afa,1760607953063743499,-1.096725,-0.307083,-0.368118,-0.020996,-0.591309,0.833008,0.4802785929328263,-36.56068954270082,123.11276690927201,0.45340871810913086,-0.15289559960365295,-0.2739049792289734,0.8342775106430054
4f267594-96e5-4969-84f8-417c04045618,b3765975-64a4-4e42-b897-01b5f8e34afa,1760607953071714499,-1.644135,-0.244141,-0.307083,-0.017578,-0.583984,0.827148,0.4833621988752451,-36.562840363097756,122.92659825537454,0.4547681212425232,-0.15337130427360535,-0.2736596465110779,0.8335304856300354
4f267594-96e5-4969-84f8-417c04045618,b3765975-64a4-4e42-b897-01b5f8e34afa,1760607953079685499,-1.586914,-0.244141,-0.185013,-0.010254,-0.575684,0.844727,0.4806524915526679,-36.56049224759875,122.77564935889708,0.45586225390434265,-0.15370266139507294,-0.2734510600566864,0.8329400420188904
4f267594-96e5-4969-84f8-417c04045618,b3765975-64a4-4e42-b897-01b5f8e34afa,1760607953087656499,-1.220703,-0.366211,0.0,-0.024902,-0.592285,0.834961,0.4848916753274632,-36.558194847747124,122.54973431428908,0.45751655101776123,-0.15426312386989594,-0.273113876581192,0.8320395350456238
4f267594-96e5-4969-84f8-417c04045618,b3765975-64a4-4e42-b897-01b5f8e34afa,1760607953095627499,-1.340866,-0.181198,-0.368118,-0.029785,-0.589844,0.837402,0.4889378236747215,-36.56084604828894,122.31333122439827,0.45923829078674316,-0.15486614406108856,-0.272798091173172,0.8310820460319519
4f267594-96e5-4969-84f8-417c04045618,b3765975-64a4-4e42-b897-01b5f8e34afa,1760607953103630499,-1.220703,-0.366211,-0.185013,-0.02002,-0.583496,0.840332,0.49140314838683397,-36.553680906185754,122.07565610137671,0.46097618341445923,-0.15542079508304596,-0.2724143862724304,0.8301417231559753
4f267594-96e5-4969-84f8-417c04045618,b3765975-64a4-4e42-b897-01b5f8e34afa,1760607953111633499,-1.03569,-0.181198,-0.368118,-0.012207,-0.584961,0.84082,0.49424214935471916,-36.543399551923486,121.88166155886165,0.46240097284317017,-0.1558610200881958,-0.2720648944377899,0.8293810486793518
4f267594-96e5-4969-84f8-417c04045618,b3765975-64a4-4e42-b897-01b5f8e34afa,1760607953119636499,-1.03569,-0.001907,-0.307083,-0.024414,-0.59375,0.842773,0.5008487305500475,-36.531766914114584,121.68447521843798,0.4638582766056061,-0.15632988512516022,-0.27168530225753784,0.8286030888557434
4f267594-96e5-4969-84f8-417c04045618,b3765975-64a4-4e42-b897-01b5f8e34afa,1760607953127639499,-0.547409,-0.181198,-0.307083,-0.012695,-0.583008,0.834961,0.5065131264853319,-36.519535991670494,121.46923891507217,0.4654431939125061,-0.15683141350746155,-0.2712796926498413,0.8277519941329956
4f267594-96e5-4969-84f8-417c04045618,b3765975-64a4-4e42-b897-01b5f8e34afa,1760607953138308499,-0.850677,-0.366211,-0.185013,-0.015625,-0.584961,0.841797,0.50922895948956,-36.50907897653471,121.30196842548362,0.46667107939720154,-0.15720447897911072,-0.2709638178348541,0.8270930647850037
4f267594-96e5-4969-84f8-417c04045618,b3765975-64a4-4e42-b897-01b5f8e34afa,1760607953148977499,-1.403809,-0.244141,0.0,-0.011719,-0.593262,0.837891,0.5118282153000024,-36.503781151674126,121.20743616144006,0.4673663079738617,-0.15742520987987518,-0.2707851529121399,0.826716959476471
4f267594-96e5-4969-84f8-417c04045618,b3765975-64a4-4e42-b897-01b5f8e34afa,1760607953159646499,-1.096725,-0.307083,-0.185013,-0.020508,-0.572266,0.836426,0.5137776329469965,-36.49731720097934,121.01954552380063,0.4687342941761017,-0.15785673260688782,-0.2704720199108124,0.8259623646736145
4f267594-96e5-4969-84f8-417c04045618,b3765975-64a4-4e42-b897-01b5f8e34afa,1760607953167645499,-1.096725,-0.612259,-0.185013,-0.015625,-0.586914,0.822754,0.5183379451265269,-36.4952215458388,120.81681702399466,0.4702083170413971,-0.15835927426815033,-0.2701584994792938,0.8251305222511292
4f267594-96e5-4969-84f8-417c04045618,b3765975-64a4-4e42-b897-01b5f8e34afa,1760607953175644499,-1.340866,-0.246048,-0.123978,-0.005859,-0.574219,0.840332,0.5206885084652065,-36.481875462604485,120.60207786470592,0.47177690267562866,-0.1588274985551834,-0.26975542306900024,0.8242766261100769
4f267594-96e5-4969-84f8-417c04045618,b3765975-64a4-4e42-b897-01b5f8e34afa,1760607953183643499,-1.464844,-0.671387,-0.123978,-0.019043,-0.584961,0.849121,0.5221084532850696,-36.48267953534697,120.37941577789049,0.4733799397945404,-0.15936487913131714,-0.2694462239742279,0.8233544230461121
4f267594-96e5-4969-84f8-417c04045618,b3765975-64a4-4e42-b897-01b5f8e34afa,1760607953191642499,-1.586914,-0.427246,-0.062943,-0.010742,-0.588867,0.846191,0.522631563123164,-36.483780993406,120.16187701042128,0.4749418795108795,-0.15988437831401825,-0.26914894580841064,0.8224509954452515
4f267594-96e5-4969-84f8-417c04045618,b3765975-64a4-4e42-b897-01b5f8e34afa,1760607953202312499,-1.157761,-0.612259,-0.429153,-0.008789,-0.57373,0.842285,0.5216452477841717,-36.48039848912699,119.97130829961174,0.47631117701530457,-0.16031070053577423,-0.2688624858856201,0.8216694593429565
4f267594-96e5-4969-84f8-417c04045618,b3765975-64a4-4e42-b897-01b5f8e34afa,1760607953212982499,-1.218796,-0.181198,0.0,-0.023438,-0.572754,0.833984,0.5266247080880258,-36.46642040431795,119.81457804078116,0.4774649143218994,-0.16065603494644165,-0.26852190494537354,0.8210434913635254
4f267594-96e5-4969-84f8-417c04045618,b3765975-64a4-4e42-b897-01b5f8e34afa,1760607953223652499,-1.281738,-0.183105,-0.368118,-0.015137,-0.587402,0.845703,0.5306466310022854,-36.4594706949757,119.69590126443249,0.4783336818218231,-0.1609339714050293,-0.2682887315750122,0.8205595016479492
4f267594-96e5-4969-84f8-417c04045618,b3765975-64a4-4e42-b897-01b5f8e34afa,1760607953231653499,-1.464844,-0.183105,-0.368118,-0.005859,-0.595703,0.825195,0.5306405604954597,-36.46411881470511,119.51181068214932,0.4796450436115265,-0.16138409078121185,-0.26806318759918213,0.8197789192199707
4f267594-96e5-4969-84f8-417c04045618,b3765975-64a4-4e42-b897-01b5f8e34afa,1760607953239654499,-1.585007,-0.123978,-0.490189,-0.011719,-0.599121,0.841797,0.5274741772859737,-36.4708857977918,119.33682429829875,0.4808798134326935,-0.1617988646030426,-0.2678781747817993,0.8190339207649231
4f267594-96e5-4969-84f8-417c04045618,b3765975-64a4-4e42-b897-01b5f8e34afa,1760607953247655499,-1.586914,0.12207,-0.185013,-0.020508,-0.582031,0.831543,0.5311882773495034,-36.47293125297991,119.19738772901913,0.4818819761276245,-0.1621597707271576,-0.2676801085472107,0.8184381127357483
4f267594-96e5-4969-84f8-417c04045618,b3765975-64a4-4e42-b897-01b5f8e34afa,1760607953255656499,-1.646042,-0.307083,-0.490189,-0.029297,-0.588379,0.833008,0.5368253535062572,-36.47875105330518,118.9783119216621,0.48345106840133667,-0.16273587942123413,-0.26738741993904114,0.8174934983253479
4f267594-96e5-4969-84f8-417c04045618,b3765975-64a4-4e42-b897-01b5f8e34afa,1760607953266345499,-1.523972,-0.123978,-0.368118,-0.021484,-0.584473,0.831543,0.5369988375777246,-36.48242611846084,118.74892974189886,0.48508191108703613,-0.16328749060630798,-0.26708662509918213,0.8165152072906494
4f267594-96e5-4969-84f8-417c04045618,b3765975-64a4-4e42-b897-01b5f8e34afa,1760607953277034499,-1.77002,-0.244141,-0.490189,-0.009277,-0.584473,0.832519,0.5297159295126435,-36.487747740492374,118.53321192352149,0.48659393191337585,-0.16376064717769623,-0.2668476402759552,0.8155983686447144
4f267594-96e5-4969-84f8-417c04045618,b3765975-64a4-4e42-b897-01b5f8e34afa,1760607953287723499,-1.157761,-0.307083,-0.307083,-0.020996,-0.586426,0.832031,0.5326352470181789,-36.485882207359545,118.33891176734608,0.4879854917526245,-0.1642257273197174,-0.2665438652038574,0.814772367477417
4f267594-96e5-4969-84f8-417c04045618,b3765975-64a4-4e42-b897-01b5f8e34afa,1760607953295711499,-1.340866,-0.123978,-0.307083,-0.013672,-0.600586,0.832031,0.5340628717448552,-36.48679811913643,118.16164734363115,0.4892473518848419,-0.16465187072753906,-0.26628991961479187,0.814012348651886
4f267594-96e5-4969-84f8-417c04045618,b3765975-64a4-4e42-b897-01b5f8e34afa,1760607953303699499,-1.340866,-0.490189,-0.307083,-0.017578,-0.598145,0.848633,0.5298643947459417,-36.49007726109527,117.98080136006905,0.49051713943481445,-0.16505607962608337,-0.26607102155685425,0.8132375478744507
4f267594-96e5-4969-84f8-417c04045618,b3765975-64a4-4e42-b897-01b5f8e34afa,1760607953311687499,-1.523972,-0.062943,-0.368118,-0.029785,-0.598145,0.838379,0.5328641761015303,-36.49474412637318,117.82875122952781,0.4915963113307953,-0.16545017063617706,-0.265872061252594,0.8125706315040588
4f267594-96e5-4969-84f8-417c04045618,b3765975-64a4-4e42-b897-01b5f8e34afa,1760607953319675499,-1.281738,-0.671387,-0.185013,-0.013672,-0.583008,0.82959,0.5297518849865156,-36.498038512157244,117.71419048464571,0.49239665269851685,-0.16570791602134705,-0.26574328541755676,0.8120754957199097
4f267594-96e5-4969-84f8-417c04045618,b3765975-64a4-4e42-b897-01b5f8e34afa,1760607953327664499,-1.403809,-0.366211,-0.307083,-0.019531,-0.586914,0.834961,0.5270912565132576,-36.50051046404359,117.50894996895686,0.493840754032135,-0.16617538034915924,-0.2654750645160675,0.8111903071403503
4f267594-96e5-4969-84f8-417c04045618,b3765975-64a4-4e42-b897-01b5f8e34afa,1760607953335653499,-1.464844,-0.12207,-0.307083,-0.021484,-0.601074,0.832519,0.5346269461078245,-36.50170119574879,117.3154858272568,0.49522536993026733,-0.16668176651000977,-0.26517000794410706,0.8103415966033936
4f267594-96e5-4969-84f8-417c04045618,b3765975-64a4-4e42-b897-01b5f8e34afa,1760607953343642499,-1.586914,-0.244141,-0.246048,-0.018555,-0.581055,0.829102,0.5389824608050656,-36.504807048983785,117.1963814468188,0.4960730969905853,-0.16700142621994019,-0.26499974727630615,0.8098128437995911
4f267594-96e5-4969-84f8-417c04045618,b3765975-64a4-4e42-b897-01b5f8e34afa,1760607953351631499,-1.464844,-0.427246,-0.062943,-0.017578,-0.583984,0.825684,0.5426212119990091,-36.50075079612182,117.05869191319474,0.4970598518848419,-0.16732792556285858,-0.26475441455841064,0.8092203736305237
4f267594-96e5-4969-84f8-417c04045618,b3765975-64a4-4e42-b897-01b5f8e34afa,1760607953362296499,-1.708984,-0.366211,-0.062943,-0.020508,-0.590332,0.839844,0.5492042141039287,-36.50505119255911,116.88372001384619,0.4983040690422058,-0.1677970290184021,-0.26450037956237793,0.8084407448768616
4f267594-96e5-4969-84f8-417c04045618,b3765975-64a4-4e42-b897-01b5f8e34afa,1760607953372961499,-1.77002,-0.427246,-0.429153,-0.020508,-0.586426,0.839844,0.5488735889052513,-36.50852029833502,116.69202115655743,0.49965018033981323,-0.16825199127197266,-0.26424524188041687,0.807598352432251
4f267594-96e5-4969-84f8-417c04045618,b3765975-64a4-4e42-b897-01b5f8e34afa,1760607953383626499,-1.707077,-0.490189,-0.185013,-0.011719,-0.582031,0.837402,0.5447479949652316,-36.51290484877774,116.52419376464292,0.5008167624473572,-0.16862882673740387,-0.2640475034713745,0.8068615198135376
4f267594-96e5-4969-84f8-417c04045618,b3765975-64a4-4e42-b897-01b5f8e34afa,1760607953391681499,-1.464844,-0.427246,-0.368118,-0.015137,-0.595215,0.830078,0.544397525746944,-36.517466338953675,116.3924787306896,0.5017366409301758,-0.16894963383674622,-0.2638871967792511,0.8062751293182373
4f267594-96e5-4969-84f8-417c04045618,b3765975-64a4-4e42-b897-01b5f8e34afa,1760607953399736499,-1.586914,-0.549316,-0.673294,-0.023437,-0.590332,0.816406,0.543510853639882,-36.52465061110996,116.21867422618105,0.5029467940330505,-0.16937483847141266,-0.2636851370334625,0.8054976463317871
4f267594-96e5-4969-84f8-417c04045618,b3765975-64a4-4e42-b897-01b5f8e34afa,1760607953407791499,-1.644135,-0.732422,-0.551224,-0.010254,-0.595703,0.836914,0.5401126090356313,-36.529413202770805,116.06091053425067,0.5040407180786133,-0.1697346568107605,-0.2635001540184021,0.804798424243927
4f267594-96e5-4969-84f8-417c04045618,b3765975-64a4-4e42-b897-01b5f8e34afa,1760607953415846499,-1.338959,-0.549316,-0.429153,-0.018555,-0.588867,0.843262,0.5392369703930928,-36.53222962364623,115.94219476843423,0.50486820936203,-0.17001375555992126,-0.2633478343486786,0.8042705059051514
4f267594-96e5-4969-84f8-417c04045618,b3765975-64a4-4e42-b897-01b5f8e34afa,1760607953423779499,-0.852585,-1.22261,-0.551224,-0.030273,-0.595703,0.825684,0.5379011993554943,-36.531474215975635,115.79420248754285,0.505904495716095,-0.17034104466438293,-0.2631286382675171,0.8036215305328369
4f267594-96e5-4969-84f8-417c04045618,b3765975-64a4-4e42-b897-01b5f8e34afa,1760607953431712499,-1.155853,-1.342773,-0.368118,-0.025391,-0.588867,0.838379,0.5295135472785523,-36.52802885612604,115.59324039022302,0.5072987079620361,-0.17072828114032745,-0.26284244656562805,0.8027536869049072
4f267594-96e5-4969-84f8-417c04045618,b3765975-64a4-4e42-b897-01b5f8e34afa,1760607953439645499,-1.155853,-1.037598,-0.307083,-0.012695,-0.592773,0.836914,0.5215834169689638,-36.526297205870435,115.44656120220097,0.5083101391792297,-0.17100144922733307,-0.26264673471450806,0.8021194934844971
4f267594-96e5-4969-84f8-417c04045618,b3765975-64a4-4e42-b897-01b5f8e34afa,1760607953447578499,-1.464844,-1.220703,-0.123978,-0.020508,-0.585938,0.832031,0.5201067006599908,-36.524768751034564,115.3068579231939,0.5092864632606506,-0.17130443453788757,-0.2624339163303375,0.8015049695968628
4f267594-96e5-4969-84f8-417c04045618,b3765975-64a4-4e42-b897-01b5f8e34afa,1760607953458307499,-1.401901,-0.917435,0.059128,-0.018555,-0.599609,0.830078,0.5142579870905882,-36.52636271043026,115.15827939922247,0.5103095769882202,-0.1716107279062271,-0.26224878430366516,0.8008490800857544
4f267594-96e5-4969-84f8-417c04045618,b3765975-64a4-4e42-b897-01b5f8e34afa,1760607953469036499,-1.218796,-0.669479,0.059128,-0.013672,-0.587891,0.824707,0.5151754173193095,-36.52392103705123,114.99444772096376,0.5114596486091614,-0.1719810664653778,-0.2619819939136505,0.8001229166984558
4f267594-96e5-4969-84f8-417c04045618,b3765975-64a4-4e42-b897-01b5f8e34afa,1760607953479765499,-0.827789,0.198364,0.310898,-0.02002,-0.580566,0.833008,0.5174774248809165,-36.51422873075118,114.84034631330573,0.512554407119751,-0.1723061352968216,-0.2616724371910095,0.7994534373283386
4f267594-96e5-4969-84f8-417c04045618,b3765975-64a4-4e42-b897-01b5f8e34afa,1760607953487921499,-0.94986,0.442505,0.494003,-0.016113,-0.59668,0.828613,0.5210487471714811,-36.50562775111544,114.68268098789034,0.5136744379997253,-0.17265251278877258,-0.2613590359687805,0.7987620830535889
4f267594-96e5-4969-84f8-417c04045618,b3765975-64a4-4e42-b897-01b5f8e34afa,1760607953496077499,-0.524521,0.318527,0.368118,-0.014648,-0.598633,0.833008,0.5236978969076754,-36.50038677695918,114.51202000934506,0.5148770809173584,-0.1730365753173828,-0.2610531449317932,0.7980043292045593
4f267594-96e5-4969-84f8-417c04045618,b3765975-64a4-4e42-b897-01b5f8e34afa,1760607953504233499,-0.644684,0.320435,0.494003,-0.009277,-0.59082,0.843262,0.5305826222405083,-36.48895193620295,114.32891351161308,0.5161837935447693,-0.17345011234283447,-0.2606655955314636,0.7971966862678528
4f267594-96e5-4969-84f8-417c04045618,b3765975-64a4-4e42-b897-01b5f8e34afa,1760607953512389499,-0.522614,0.259399,0.249863,-0.016602,-0.609375,0.837891,0.5352103603140137,-36.48412349804964,114.22213654894162,0.5169439315795898,-0.17370343208312988,-0.2604493498802185,0.796719491481781
4f267594-96e5-4969-84f8-417c04045618,b3765975-64a4-4e42-b897-01b5f8e34afa,1760607953520188499,-0.644684,0.015259,0.249863,-0.009277,-0.595215,0.841309,0.5371594811510532,-36.47425097116269,114.09679920130998,0.5178338289260864,-0.17395734786987305,-0.2601816654205322,0.7961734533309937
4f267594-96e5-4969-84f8-417c04045618,b3765975-64a4-4e42-b897-01b5f8e34afa,1760607953527987499,-0.890732,0.318527,0.310898,-0.010254,-0.598633,0.833008,0.5403126410330908,-36.468330063412125,113.93350037280695,0.5189836621284485,-0.17432314157485962,-0.2598780393600464,0.795443594455719
4f267594-96e5-4969-84f8-417c04045618,b3765975-64a4-4e42-b897-01b5f8e34afa,1760607953535786499,-0.585556,-0.043869,0.188828,-0.025391,-0.586426,0.838379,0.5455624313679548,-36.461198489645334,113.7648220607408,0.5201762914657593,-0.17470969259738922,-0.25954777002334595,0.7946872115135193
4f267594-96e5-4969-84f8-417c04045618,b3765975-64a4-4e42-b897-01b5f8e34afa,1760607953543585499,-0.890732,0.318527,0.062943,-0.021973,-0.600098,0.835449,0.5538905407154402,-36.45416039676881,113.5948153770273,0.5213838219642639,-0.17512036859989166,-0.2592015266418457,0.7939181923866272
4f267594-96e5-4969-84f8-417c04045618,b3765975-64a4-4e42-b897-01b5f8e34afa,1760607953551632499,-0.461578,-0.167847,0.005722,-0.021484,-0.571777,0.832519,0.5597896775108988,-36.440698684502,113.41646068326526,0.5226519107818604,-0.17550331354141235,-0.2588083744049072,0.793127715587616
4f267594-96e5-4969-84f8-417c04045618,b3765975-64a4-4e42-b897-01b5f8e34afa,1760607953559679499,-0.827789,0.015259,-0.303268,-0.012695,-0.591797,0.827148,0.5639634423049197,-36.43338302669571,113.23778076074628,0.5239081382751465,-0.17590224742889404,-0.25846463441848755,0.7923221588134766
4f267594-96e5-4969-84f8-417c04045618,b3765975-64a4-4e42-b897-01b5f8e34afa,1760607953567726499,-0.705719,-0.106812,-0.055313,-0.020508,-0.595703,0.836914,0.5707098995268814,-36.42636286362768,113.06202416558601,0.5251482725143433,-0.17631304264068604,-0.2581150233745575,0.7915234565734863
4f267594-96e5-4969-84f8-417c04045618,b3765975-64a4-4e42-b897-01b5f8e34afa,1760607953575773499,-0.705719,-0.045776,-0.120163,-0.015137,-0.592773,0.841309,0.5740171579880666,-36.421168470324474,112.97077291012221,0.5257934927940369,-0.17651763558387756,-0.257923424243927,0.7911118865013123
4f267594-96e5-4969-84f8-417c04045618,b3765975-64a4-4e42-b897-01b5f8e34afa,1760607953586396499,-0.585556,-0.169754,-0.543594,-0.016113,-0.59082,0.837402,0.5775259757871276,-36.412497695105834,112.8495545617392,0.5266507267951965,-0.17677493393421173,-0.25766047835350037,0.7905697226524353
4f267594-96e5-4969-84f8-417c04045618,b3765975-64a4-4e42-b897-01b5f8e34afa,1760607953597019499,-0.705719,-0.289917,-0.238419,-0.024414,-0.595703,0.836914,0.5818069325000248,-36.40624486132839,112.6698800597729,0.5279085040092468,-0.17717956006526947,-0.2573200762271881,0.7897506952285767
4f267594-96e5-4969-84f8-417c04045618,b3765975-64a4-4e42-b897-01b5f8e34afa,1760607953607642499,-0.402451,0.135422,-0.120163,-0.00293,-0.584961,0.835449,0.5855985783723985,-36.39563207333434,112.57297117592063,0.5286003947257996,-0.17737452685832977,-0.2570793926715851,0.7893223762512207
4f267594-96e5-4969-84f8-417c04045618,b3765975-64a4-4e42-b897-01b5f8e34afa,1760607953615647499,-0.217438,-0.289917,-0.177383,-0.022949,-0.599121,0.846191,0.5925360440402646,-36.3881167158567,112.47138128358074,0.5293266177177429,-0.17761558294296265,-0.2568381428718567,0.7888599038124084
4f267594-96e5-4969-84f8-417c04045618,b3765975-64a4-4e42-b897-01b5f8e34afa,1760607953623652499,-0.339508,0.198364,-0.055313,-0.015625,-0.592773,0.828125,0.5951529532501445,-36.38254416592136,112.29231139220506,0.5305728316307068,-0.1780090630054474,-0.2565097510814667,0.7880403995513916
4f267594-96e5-4969-84f8-417c04045618,b3765975-64a4-4e42-b897-01b5f8e34afa,1760607953631657499,0.085831,-0.043869,-0.120163,-0.021973,-0.598633,0.844238,0.6014700295627248,-36.37324109248384,112.11175950746996,0.5318417549133301,-0.17841343581676483,-0.25613558292388916,0.7872148752212524
4f267594-96e5-4969-84f8-417c04045618,b3765975-64a4-4e42-b897-01b5f8e34afa,1760607953639662499,0.574112,-0.715256,0.062943,-0.014648,-0.597656,0.820312,0.6034977168674197,-36.36682853872726,111.93372264445351,0.5330782532691956,-0.17879541218280792,-0.25580453872680664,0.7863990664482117
4f267594-96e5-4969-84f8-417c04045618,b3765975-64a4-4e42-b897-01b5f8e34afa,1760607953650364499,0.268936,-0.47493,0.127792,-0.025391,-0.589355,0.84082,0.6107139844534344,-36.35868344315921,111.7929640748691,0.5340720415115356,-0.17912118136882782,-0.2554951012134552,0.7857510447502136
4f267594-96e5-4969-84f8-417c04045618,b3765975-64a4-4e42-b897-01b5f8e34afa,1760607953661066499,0.637054,-0.778198,0.494003,-0.022461,-0.591797,0.830566,0.6176305285262235,-36.35188420643671,111.65097922372277,0.5350707769393921,-0.17945343255996704,-0.2551939785480499,0.7850933074951172
4f267594-96e5-4969-84f8-417c04045618,b3765975-64a4-4e42-b897-01b5f8e34afa,1760607953671768499,0.514984,-1.38855,0.127792,-0.031738,-0.588867,0.829102,0.6201251388157112,-36.34399930299089,111.50252738809588,0.5361047387123108,-0.1797642558813095,-0.25489550828933716,0.7844135165214539
4f267594-96e5-4969-84f8-417c04045618,b3765975-64a4-4e42-b897-01b5f8e34afa,1760607953679732499,0.331879,-1.205444,0.616074,-0.007812,-0.585938,0.836426,0.6133216182987918,-36.332279150571,111.50835279982614,0.5360672473907471,-0.1796501874923706,-0.25485605001449585,0.7844780683517456
4f267594-96e5-4969-84f8-417c04045618,b3765975-64a4-4e42-b897-01b5f8e34afa,1760607953687696499,0.516891,-1.024246,0.616074,-0.025879,-0.609375,0.84082,0.6168994087780858,-36.32592810594205,111.451930964769,0.536470890045166,-0.1797705590724945,-0.2547072470188141,0.7842228412628174
4f267594-96e5-4969-84f8-417c04045618,b3765975-64a4-4e42-b897-01b5f8e34afa,1760607953695660499,0.026703,-1.205444,0.494003,-0.013672,-0.598145,0.825684,0.6176121557434567,-36.319865558560274,111.29716860221824,0.5375401973724365,-0.18009096384048462,-0.25441932678222656,0.7835102677345276
4f267594-96e5-4969-84f8-417c04045618,b3765975-64a4-4e42-b897-01b5f8e34afa,1760607953703624499,-0.341415,-1.024246,0.982285,-0.013184,-0.579102,0.828125,0.6164971671312094,-36.313720322144455,111.14642207337651,0.5385771989822388,-0.1803891509771347,-0.2541453540325165,0.7828181385993958
4f267594-96e5-4969-84f8-417c04045618,b3765975-64a4-4e42-b897-01b5f8e34afa,1760607953711626499,-0.278473,-0.717163,0.738144,-0.017578,-0.594238,0.832031,0.6186421075482534,-36.30623480485365,111.00377104635896,0.5395672917366028,-0.18068496882915497,-0.253859281539917,0.7821606397628784
4f267594-96e5-4969-84f8-417c04045618,b3765975-64a4-4e42-b897-01b5f8e34afa,1760607953719628499,-0.217438,-0.717163,0.368118,-0.008789,-0.589355,0.84082,0.6162798936393977,-36.29457879257503,110.85642061634248,0.540584921836853,-0.1809404194355011,-0.2535581886768341,0.7814963459968567
4f267594-96e5-4969-84f8-417c04045618,b3765975-64a4-4e42-b897-01b5f8e34afa,1760607953727630499,-0.034332,-0.289917,0.494003,-0.016113,-0.587402,0.84375,0.6196853677953426,-36.287050733504266,110.71007558460101,0.5416014194488525,-0.1812519133090973,-0.2532593905925751,0.780816912651062
4f267594-96e5-4969-84f8-417c04045618,b3765975-64a4-4e42-b897-01b5f8e34afa,1760607953735632499,-0.097275,-0.658035,0.551224,-0.016602,-0.597168,0.834473,0.6244077955316696,-36.28183143963233,110.56125889581128,0.5426332950592041,-0.18158821761608124,-0.2529658079147339,0.7801172137260437
4f267594-96e5-4969-84f8-417c04045618,b3765975-64a4-4e42-b897-01b5f8e34afa,1760607953746281499,-0.217438,-0.595093,0.677109,-0.029785,-0.583496,0.837402,0.6310530520509146,-36.27414188070885,110.44921297469635,0.5434221029281616,-0.18184439837932587,-0.2527041733264923,0.7795931100845337
4f267594-96e5-4969-84f8-417c04045618,b3765975-64a4-4e42-b897-01b5f8e34afa,1760607953756930499,-0.278473,-0.717163,0.062943,-0.013184,-0.599609,0.821289,0.6330937903462328,-36.268716711214566,110.32285715599149,0.5442941188812256,-0.18211118876934052,-0.2524568438529968,0.7790023684501648
4f267594-96e5-4969-84f8-417c04045618,b3765975-64a4-4e42-b897-01b5f8e34afa,1760607953767579499,-0.217438,-0.778198,0.188828,-0.016113,-0.599609,0.822266,0.6378899726145751,-36.26528024456422,110.16514812208865,0.545381486415863,-0.1824747622013092,-0.2521597445011139,0.7782526612281799
4f267594-96e5-4969-84f8-417c04045618,b3765975-64a4-4e42-b897-01b5f8e34afa,1760607953775587499,-0.034332,-0.900269,-0.055313,-0.012695,-0.579102,0.841309,0.6394467293300008,-36.25226422754623,110.02281430448349,0.5463709235191345,-0.18273665010929108,-0.2518369257450104,0.7776014804840088
4f267594-96e5-4969-84f8-417c04045618,b3765975-64a4-4e42-b897-01b5f8e34afa,1760607953783595499,-0.339508,-0.778198,-0.177383,-0.005859,-0.57959,0.841797,0.6383200274179041,-36.23853471019583,109.90639746922969,0.5471790432929993,-0.18291956186294556,-0.2515631914138794,0.7770786285400391
4f267594-96e5-4969-84f8-417c04045618,b3765975-64a4-4e42-b897-01b5f8e34afa,1760607953791603499,0.148773,-0.656128,-0.238419,-0.016113,-0.596191,0.835938,0.641933854816993,-36.23186705366443,109.7457982868741,0.5482856631278992,-0.18326470255851746,-0.2512440085411072,0.7763201594352722
4f267594-96e5-4969-84f8-417c04045618,b3765975-64a4-4e42-b897-01b5f8e34afa,1760607953799611499,-0.276566,-0.352859,-0.120163,-0.002441,-0.592285,0.834961,0.6402017319472576,-36.2273502449964,109.5887794140291,0.5493519902229309,-0.18357551097869873,-0.2509703040122986,0.7755811214447021
4f267594-96e5-4969-84f8-417c04045618,b3765975-64a4-4e42-b897-01b5f8e34afa,1760607953807619499,-0.217438,-0.411987,-0.120163,-0.015625,-0.588867,0.840332,0.6426189788356153,-36.21659940916447,109.45231237032947,0.5502969622612,-0.18383924663066864,-0.250667005777359,0.7749465703964233
4f267594-96e5-4969-84f8-417c04045618,b3765975-64a4-4e42-b897-01b5f8e34afa,1760607953815627499,-0.156403,-0.350952,-0.055313,-0.01416,-0.59082,0.825684,0.6452199967361129,-36.20969629197207,109.30902277402933,0.5512818098068237,-0.18413709104061127,-0.2503776550292969,0.7742691040039062
4f267594-96e5-4969-84f8-417c04045618,b3765975-64a4-4e42-b897-01b5f8e34afa,1760607953823635499,0.087738,-0.411987,-0.238419,-0.005859,-0.597656,0.833496,0.6454182657369427,-36.202011142824915,109.16630726080336,0.5522578954696655,-0.18441326916217804,-0.2500951588153839,0.7735987901687622
4f267594-96e5-4969-84f8-417c04045618,b3765975-64a4-4e42-b897-01b5f8e34afa,1760607953831643499,-0.278473,0.076294,-0.055313,-0.003418,-0.587402,0.837891,0.6478379385113752,-36.19452968732514,109.01508346587713,0.5532950758934021,-0.18472352623939514,-0.249789297580719,0.7728821635246277
4f267594-96e5-4969-84f8-417c04045618,b3765975-64a4-4e42-b897-01b5f8e34afa,1760607953842291499,-0.278473,0.015259,-0.055313,-0.010742,-0.575195,0.843262,0.64997503425696,-36.18223087906826,108.8890885784619,0.5541681051254272,-0.18495330214500427,-0.2494926005601883,0.7722973227500916
4f267594-96e5-4969-84f8-417c04045618,b3765975-64a4-4e42-b897-01b5f8e34afa,1760607953852939499,-0.278473,-0.106812,-0.177383,-0.005859,-0.601074,0.834473,0.6494456541387934,-36.1754203307802,108.7998853242203,0.5547784566879272,-0.18511109054088593,-0.2493051141500473,0.7718817591667175
4f267594-96e5-4969-84f8-417c04045618,b3765975-64a4-4e42-b897-01b5f8e34afa,1760607953863587499,-0.097275,-0.043869,-0.120163,-0.006348,-0.585449,0.832519,0.6477964145684458,-36.166512810349275,108.64424161318823,0.5558364987373352,-0.18539544939994812,-0.24900135397911072,0.7711500525474548
4f267594-96e5-4969-84f8-417c04045618,b3765975-64a4-4e42-b897-01b5f8e34afa,1760607953871617499,-0.585556,0.013351,-0.177383,-0.005859,-0.583496,0.835449,0.6454891675544868,-36.15654607359191,108.52442229390394,0.5566529035568237,-0.18559202551841736,-0.24875137209892273,0.7705943584442139
4f267594-96e5-4969-84f8-417c04045618,b3765975-64a4-4e42-b897-01b5f8e34afa,1760607953879647499,-0.278473,0.015259,-0.055313,-0.004883,-0.578125,0.842285,0.647365732075381,-36.14668356028939,108.47096626260748,0.5570316314697266,-0.18567298352718353,-0.2485891729593277,0.7703534364700317
4f267594-96e5-4969-84f8-417c04045618,b3765975-64a4-4e42-b897-01b5f8e34afa,1760607953887677499,-0.339508,0.198364,0.005722,-0.019043,-0.585449,0.829102,0.6512319392255149,-36.13744154718413,108.34810439460054,0.5578799247741699,-0.1859205961227417,-0.24830888211727142,0.769770085811615
4f267594-96e5-4969-84f8-417c04045618,b3765975-64a4-4e42-b897-01b5f8e34afa,1760607953895707499,-0.217438,-0.228882,-0.120163,-0.018555,-0.585938,0.829102,0.6527069215653347,-36.1312917322469,108.21648423295397,0.5587764382362366,-0.18618576228618622,-0.24804659187793732,0.7691400051116943
4f267594-96e5-4969-84f8-417c04045618,b3765975-64a4-4e42-b897-01b5f8e34afa,1760607953906378499,-0.644684,0.076294,0.062943,-0.005371,-0.583984,0.838867,0.6528391109244839,-36.12309839431992,108.0845827077766,0.5596743822097778,-0.18643222749233246,-0.24777637422084808,0.7685142755508423
4f267594-96e5-4969-84f8-417c04045618,b3765975-64a4-4e42-b897-01b5f8e34afa,1760607953917049499,-0.522614,-0.106812,-0.177383,-0.01709,-0.599121,0.841309,0.6532080133788105,-36.11414251640429,107.94887165061715,0.5605988502502441,-0.18668442964553833,-0.2474934309720993,0.7678701281547546
4f267594-96e5-4969-84f8-417c04045618,b3765975-64a4-4e42-b897-01b5f8e34afa,1760607953927720499,-0.707626,0.135422,-0.055313,-0.01123,-0.588379,0.832519,0.6528191954513243,-36.10440881444264,107.80715353951955,0.5615623593330383,-0.1869402974843979,-0.2471989244222641,0.7671984434127808
4f267594-96e5-4969-84f8-417c04045618,b3765975-64a4-4e42-b897-01b5f8e34afa,1760607953935698499,-0.585556,0.135422,0.005722,-0.017578,-0.598145,0.82959,0.6530889109634264,-36.0969306543837,107.66617925498055,0.5625180006027222,-0.18720956146717072,-0.24691727757453918,0.7665230631828308
4f267594-96e5-4969-84f8-417c04045618,b3765975-64a4-4e42-b897-01b5f8e34afa,1760607953943676499,-0.766754,-0.106812,0.062943,-0.015137,-0.589355,0.837891,0.6559351000182342,-36.09084269068585,107.56958395257224,0.5631795525550842,-0.18740686774253845,-0.2467045783996582,0.7660574913024902
4f267594-96e5-4969-84f8-417c04045618,b3765975-64a4-4e42-b897-01b5f8e34afa,1760607953951654499,-0.644684,-0.167847,0.310898,-0.024414,-0.592773,0.835449,0.6607392614264985,-36.084225382254715,107.53524187313711,0.5634297728538513,-0.18748055398464203,-0.24658043682575226,0.7658953666687012
4f267594-96e5-4969-84f8-417c04045618,b3765975-64a4-4e42-b897-01b5f8e34afa,1760607953959632499,-0.766754,-0.106812,-0.177383,-0.009766,-0.576172,0.82959,0.6629185913432698,-36.075508898580935,107.41363311009293,0.5642605423927307,-0.18771398067474365,-0.2463122308254242,0.765312671661377
4f267594-96e5-4969-84f8-417c04045618,b3765975-64a4-4e42-b897-01b5f8e34afa,1760607953967639499,-0.402451,-0.291824,0.188828,-0.019043,-0.572266,0.824707,0.6658930158574519,-36.06644241365355,107.29295038850431,0.5650867819786072,-0.18794865906238556,-0.24603906273841858,0.764733076095581
4f267594-96e5-4969-84f8-417c04045618,b3765975-64a4-4e42-b897-01b5f8e34afa,1760607953975646499,-0.644684,-0.350952,0.310898,-0.015625,-0.596191,0.824219,0.6714675537212657,-36.06463741522481,107.2292559123832,0.56552654504776,-0.18811370432376862,-0.24589496850967407,0.7644137144088745
4f267594-96e5-4969-84f8-417c04045618,b3765975-64a4-4e42-b897-01b5f8e34afa,1760607953983653499,-0.94986,-0.411987,0.188828,-0.013184,-0.574219,0.821777,0.6721668591552574,-36.05716752642573,107.13582196923353,0.5661628246307373,-0.1882820874452591,-0.24568811058998108,0.7639676332473755
4f267594-96e5-4969-84f8-417c04045618,b3765975-64a4-4e42-b897-01b5f8e34afa,1760607953991660499,-0.766754,-0.473022,0.062943,-0.012207,-0.584473,0.833984,0.6755883145943025,-36.05169537636396,106.99731502263782,0.5671017169952393,-0.18857474625110626,-0.2454068660736084,0.763289213180542
4f267594-96e5-4969-84f8-417c04045618,b3765975-64a4-4e42-b897-01b5f8e34afa,1760607953999675499,-1.253128,-0.658035,0.127792,-0.008789,-0.586426,0.82666,0.6716068335585702,-36.050871526245004,106.85012366861591,0.5680744647979736,-0.1888592690229416,-0.245178684592247,0.762568473815918
4f267594-96e5-4969-84f8-417c04045618,b3765975-64a4-4e42-b897-01b5f8e34afa,1760607954007690499,-1.255035,-0.106812,0.368118,-0.003418,-0.583496,0.833496,0.6717460087660357,-36.04362638809638,106.71962189570822,0.5689542293548584,-0.18910349905490875,-0.2449144423007965,0.7619367241859436
4f267594-96e5-4969-84f8-417c04045618,b3765975-64a4-4e42-b897-01b5f8e34afa,1760607954015705499,-1.621246,-0.045776,0.249863,-0.012207,-0.584961,0.846191,0.6749751850247052,-36.04099970198009,106.6163281337688,0.5696518421173096,-0.18933264911174774,-0.24471032619476318,0.7614240050315857
4f267594-96e5-4969-84f8-417c04045618,b3765975-64a4-4e42-b897-01b5f8e34afa,1760607954023720499,-1.621246,-0.350952,0.616074,-0.007324,-0.597656,0.833008,0.6732701057887314,-36.05192103381976,106.51219426199853,0.5703226923942566,-0.1895977109670639,-0.24461938440799713,0.7608848810195923
4f267594-96e5-4969-84f8-417c04045618,b3765975-64a4-4e42-b897-01b5f8e34afa,1760607954034371499,-1.377106,-0.289917,0.249863,-0.017578,-0.584961,0.831543,0.6765111897115441,-36.05861509354362,106.43614960411973,0.5708238482475281,-0.18981467187404633,-0.24452191591262817,0.7604862451553345
4f267594-96e5-4969-84f8-417c04045618,b3765975-64a4-4e42-b897-01b5f8e34afa,1760607954045022499,-1.379013,-0.352859,0.249863,-0.011719,-0.575684,0.836914,0.6766191156738244,-36.063581081118734,106.43822776817379,0.5708024501800537,-0.1898355633020401,-0.24455787241458893,0.7604855298995972
4f267594-96e5-4969-84f8-417c04045618,b3765975-64a4-4e42-b897-01b5f8e34afa,1760607954055673499,-1.316071,-0.106812,0.127792,-0.013672,-0.600586,0.833984,0.67610445226456,-36.06648188484854,106.34690278488767,0.5714026689529419,-0.19004139304161072,-0.2444283664226532,0.7600248456001282
4f267594-96e5-4969-84f8-417c04045618,b3765975-64a4-4e42-b897-01b5f8e34afa,1760607954063687499,-1.132965,-0.350952,0.127792,-0.010742,-0.600586,0.852539,0.6787975662448869,-36.06863144709628,106.19167774623259,0.5724340081214905,-0.1904008537530899,-0.24417154490947723,0.7592409253120422
4f267594-96e5-4969-84f8-417c04045618,b3765975-64a4-4e42-b897-01b5f8e34afa,1760607954071701499,-1.316071,-0.289917,-0.120163,-0.018066,-0.593262,0.835449,0.6787116451424838,-36.063137739210944,106.03041874110043,0.5735104084014893,-0.19071634113788605,-0.24386732280254364,0.7584468126296997
4f267594-96e5-4969-84f8-417c04045618,b3765975-64a4-4e42-b897-01b5f8e34afa,1760607954079715499,-1.255035,0.076294,-0.055313,-0.007324,-0.586914,0.835938,0.6774591143447358,-36.05721465067464,105.86708130356233,0.5745976567268372,-0.19102592766284943,-0.2435622364282608,0.7576435804367065
4f267594-96e5-4969-84f8-417c04045618,b3765975-64a4-4e42-b897-01b5f8e34afa,1760607954087729499,-1.499176,0.076294,-0.055313,-0.000488,-0.596191,0.840332,0.6757684987203056,-36.05942172102831,105.70162530427234,0.5756838917732239,-0.19137725234031677,-0.24330927431583405,0.7568112015724182
4f267594-96e5-4969-84f8-417c04045618,b3765975-64a4-4e42-b897-01b5f8e34afa,1760607954098366499,-1.195908,0.013351,-0.120163,-0.008789,-0.594727,0.82666,0.6752187541288438,-36.0558056790554,105.55041943683119,0.5766866207122803,-0.19167640805244446,-0.24303537607192993,0.7560597062110901
4f267594-96e5-4969-84f8-417c04045618,b3765975-64a4-4e42-b897-01b5f8e34afa,1760607954109003499,-1.194,0.076294,-0.238419,-0.021973,-0.599121,0.821777,0.6775872907837488,-36.05293924889669,105.42221848789517,0.577541708946228,-0.19194942712783813,-0.24278989434242249,0.7554163336753845
4f267594-96e5-4969-84f8-417c04045618,b3765975-64a4-4e42-b897-01b5f8e34afa,1760607954119640499,-1.316071,0.076294,-0.055313,-0.016113,-0.595703,0.838867,0.6798612434350897,-36.04833464440375,105.31391851281039,0.5782675743103027,-0.19217067956924438,-0.24256648123264313,0.7548763155937195
4f267594-96e5-4969-84f8-417c04045618,b3765975-64a4-4e42-b897-01b5f8e34afa,1760607954127656499,-1.132965,0.198364,-0.177383,-0.026367,-0.598633,0.833008,0.6859827888639995,-36.04575339522005,105.18946913934757,0.5791041254997253,-0.1924613118171692,-0.24230965971946716,0.7542431950569153
4f267594-96e5-4969-84f8-417c04045618,b3765975-64a4-4e42-b897-01b5f8e34afa,1760607954135672499,-1.255035,0.015259,-0.238419,-0.003906,-0.603516,0.831055,0.6883242552711667,-36.04264367171879,105.03610957778733,0.5801229476928711,-0.1927851438522339,-0.24201950430870056,0.7534703612327576
4f267594-96e5-4969-84f8-417c04045618,b3765975-64a4-4e42-b897-01b5f8e34afa,1760607954143688499,-1.012802,-0.352859,-0.303268,-0.01123,-0.595215,0.842773,0.6883814366760606,-36.035150276541984,104.97075257504488,0.5805647373199463,-0.19288575649261475,-0.2418598234653473,0.753155529499054
4f267594-96e5-4969-84f8-417c04045618,b3765975-64a4-4e42-b897-01b5f8e34afa,1760607954151704499,-0.94986,0.015259,0.188828,-0.009766,-0.591309,0.843262,0.6906929792019993,-36.02959505970154,104.87720084928844,0.581193208694458,-0.19307029247283936,-0.2416539490222931,0.7526894807815552
4f267594-96e5-4969-84f8-417c04045618,b3765975-64a4-4e42-b897-01b5f8e34afa,1760607954159695499,-1.132965,0.198364,0.249863,-0.00293,-0.595215,0.832031,0.6909012034487891,-36.026605278239,104.72362055362503,0.5822067260742188,-0.19338026642799377,-0.24137423932552338,0.7519159317016602
4f267594-96e5-4969-84f8-417c04045618,b3765975-64a4-4e42-b897-01b5f8e34afa,1760607954167686499,-0.705719,0.564575,-0.120163,-0.01709,-0.586914,0.842773,0.6955749433663304,-36.020257274390396,104.58930541774419,0.5831077098846436,-0.19366152584552765,-0.24108187854290009,0.7512389421463013
4f267594-96e5-4969-84f8-417c04045618,b3765975-64a4-4e42-b897-01b5f8e34afa,1760607954175677499,-0.890732,0.806808,0.249863,-0.012207,-0.60498,0.833496,0.6941955713614644,-36.01632290288708,104.46260912218948,0.5839414000511169,-0.1938989907503128,-0.24084879457950592,0.7506045699119568
4f267594-96e5-4969-84f8-417c04045618,b3765975-64a4-4e42-b897-01b5f8e34afa,1760607954183668499,-0.827789,0.686646,0.062943,-0.010254,-0.588867,0.828613,0.6947967622899637,-36.01114408165957,104.34960849047832,0.5846909284591675,-0.1941140592098236,-0.24062040448188782,0.7500385046005249
4f267594-96e5-4969-84f8-417c04045618,b3765975-64a4-4e42-b897-01b5f8e34afa,1760607954194332499,-0.94986,0.747681,0.005722,-0.018066,-0.595703,0.830566,0.6963269543820781,-36.007269532125775,104.22935323157907,0.5854871869087219,-0.194356769323349,-0.2403833270072937,0.7494302988052368
4f267594-96e5-4969-84f8-417c04045618,b3765975-64a4-4e42-b897-01b5f8e34afa,1760607954204996499,-0.644684,0.50354,0.062943,-0.010742,-0.594238,0.833008,0.6988765944528501,-36.004425386216745,104.09762455475786,0.5863582491874695,-0.19463513791561127,-0.2401280552148819,0.7487586140632629
4f267594-96e5-4969-84f8-417c04045618,b3765975-64a4-4e42-b897-01b5f8e34afa,1760607954215660499,-0.827789,0.38147,-0.120163,0.0,-0.600586,0.82373,0.6964528033127213,-36.002132597755356,104.09620301178813,0.5863661766052246,-0.1946106255054474,-0.24012301862239838,0.7487603425979614
4f267594-96e5-4969-84f8-417c04045618,b3765975-64a4-4e42-b897-01b5f8e34afa,1760607954223687499,-0.766754,0.259399,-0.120163,-0.016113,-0.588379,0.831543,0.7016188810264966,-35.997470242094025,104.04187318387208,0.5867394804954529,-0.19473443925380707,-0.23997372388839722,0.7484835386276245
4f267594-96e5-4969-84f8-417c04045618,b3765975-64a4-4e42-b897-01b5f8e34afa,1760607954231714499,-0.827789,0.259399,-0.055313,-0.012207,-0.589844,0.833496,0.705553160380283,-35.992819407760386,103.91778466492984,0.5875654220581055,-0.19499613344669342,-0.23971208930015564,0.7478510737419128
4f267594-96e5-4969-84f8-417c04045618,b3765975-64a4-4e42-b897-01b5f8e34afa,1760607954239741499,-0.888824,0.38147,-0.055313,-0.009277,-0.599609,0.82959,0.706220742720354,-35.99089492077856,103.86092716938384,0.5879409313201904,-0.19510957598686218,-0.2395992875099182,0.7475624680519104
4f267594-96e5-4969-84f8-417c04045618,b3765975-64a4-4e42-b897-01b5f8e34afa,1760607954247768499,-0.707626,0.318527,0.188828,-0.017578,-0.603516,0.838379,0.7092188839739453,-35.99067268819362,103.80168409931765,0.5883339643478394,-0.19525183737277985,-0.23948153853416443,0.7472537755966187
4f267594-96e5-4969-84f8-417c04045618,b3765975-64a4-4e42-b897-01b5f8e34afa,1760607954255773499,-0.827789,0.38147,-0.120163,-0.01416,-0.604492,0.828613,0.7123224890108699,-35.98969125606254,103.68630954410948,0.5890941023826599,-0.19550806283950806,-0.23926246166229248,0.7466578483581543
4f267594-96e5-4969-84f8-417c04045618,b3765975-64a4-4e42-b897-01b5f8e34afa,1760607954263778499,-0.890732,0.135422,0.188828,-0.019531,-0.594727,0.840332,0.7129906742572089,-35.983385934572716,103.55979215603217,0.5899297595024109,-0.19574415683746338,-0.23900184035301208,0.7460194230079651
4f267594-96e5-4969-84f8-417c04045618,b3765975-64a4-4e42-b897-01b5f8e34afa,1760607954271783499,-0.764847,0.318527,-0.055313,-0.020996,-0.59375,0.84668,0.719673793809198,-35.97898088995142,103.43057744821057,0.5907917022705078,-0.19603440165519714,-0.23871776461601257,0.7453517913818359
4f267594-96e5-4969-84f8-417c04045618,b3765975-64a4-4e42-b897-01b5f8e34afa,1760607954279788499,-0.644684,0.259399,-0.360489,-0.008789,-0.59375,0.837891,0.7195533312323397,-35.97381070407119,103.33246788229737,0.591437816619873,-0.19621139764785767,-0.23851674795150757,0.7448569536209106
4f267594-96e5-4969-84f8-417c04045618,b3765975-64a4-4e42-b897-01b5f8e34afa,1760607954290443499,-0.827789,-0.228882,-0.055313,-0.015137,-0.594727,0.837402,0.7246477048715799,-35.96868544096807,103.23299698850356,0.592103123664856,-0.19642511010169983,-0.23828661441802979,0.7443455457687378
4f267594-96e5-4969-84f8-417c04045618,b3765975-64a4-4e42-b897-01b5f8e34afa,1760607954301098499,-0.705719,0.38147,-0.177383,-0.004395,-0.583984,0.847656,0.725740276985745,-35.96044027145605,103.1182961347966,0.5928636193275452,-0.1966281682252884,-0.2380305379629135,0.7437683343887329
4f267594-96e5-4969-84f8-417c04045618,b3765975-64a4-4e42-b897-01b5f8e34afa,1760607954311753499,-0.461578,0.320435,0.062943,-0.015137,-0.594238,0.846191,0.7305922943969779,-35.956559996826655,103.08100184012562,0.5931220650672913,-0.19671712815761566,-0.23791615664958954,0.7435753345489502
4f267594-96e5-4969-84f8-417c04045618,b3765975-64a4-4e42-b897-01b5f8e34afa,1760607954319727499,-0.766754,0.198364,-0.360489,-0.011719,-0.591797,0.823242,0.7322586573600507,-35.95385458820811,103.01624928270024,0.5935500264167786,-0.19684840738773346,-0.23777872323989868,0.7432429790496826
4f267594-96e5-4969-84f8-417c04045618,b3765975-64a4-4e42-b897-01b5f8e34afa,1760607954327701499,-0.585556,0.261307,0.188828,-0.009277,-0.595703,0.833496,0.7345150056091415,-35.949001390837324,102.91559357452839,0.5942152738571167,-0.19704678654670715,-0.23756246268749237,0.7427278161048889
4f267594-96e5-4969-84f8-417c04045618,b3765975-64a4-4e42-b897-01b5f8e34afa,1760607954335675499,-0.461578,0.076294,-0.055313,-0.005859,-0.596191,0.830078,0.7311879914695262,-35.94596316422126,102.81755648864329,0.5948485732078552,-0.19721272587776184,-0.23739132285118103,0.7422313690185547
4f267594-96e5-4969-84f8-417c04045618,b3765975-64a4-4e42-b897-01b5f8e34afa,1760607954343649499,-0.402451,0.196457,0.062943,-0.012695,-0.59375,0.836426,0.7292964200312775,-35.94092953192973,102.72881734321808,0.5954275131225586,-0.19735823571681976,-0.23721566796302795,0.7417845129966736
4f267594-96e5-4969-84f8-417c04045618,b3765975-64a4-4e42-b897-01b5f8e34afa,1760607954351654499,-0.705719,-0.228882,-0.425339,-0.010742,-0.581543,0.837402,0.7292683597828489,-35.93592024373795,102.58255008496629,0.5963820219039917,-0.1976347267627716,-0.2369312047958374,0.7410346865653992
4f267594-96e5-4969-84f8-417c04045618,b3765975-64a4-4e42-b897-01b5f8e34afa,1760607954359659499,-0.705719,-0.106812,-0.055313,-0.004883,-0.598633,0.835938,0.7285656123912754,-35.933419015663006,102.44007217034091,0.5973055958747864,-0.19791166484355927,-0.23667274415493011,0.7402991056442261
4f267594-96e5-4969-84f8-417c04045618,b3765975-64a4-4e42-b897-01b5f8e34afa,1760607954367664499,-0.522614,-0.228882,0.249863,-0.009766,-0.591309,0.82373,0.732706075259534,-35.929634280077856,102.31691235003612,0.5981156826019287,-0.19817300140857697,-0.23641377687454224,0.7396575808525085
4f267594-96e5-4969-84f8-417c04045618,b3765975-64a4-4e42-b897-01b5f8e34afa,1760607954375669499,-0.585556,0.261307,0.310898,-0.01123,-0.589844,0.836914,0.7319547850004052,-35.92734240145165,102.31647211185626,0.5981207489967346,-0.1981571614742279,-0.23640209436416626,0.739661455154419
4f267594-96e5-4969-84f8-417c04045618,b3765975-64a4-4e42-b897-01b5f8e34afa,1760607954386351499,-0.461578,0.076294,0.249863,-0.001953,-0.598145,0.828613,0.7305735518693052,-35.92470637752601,102.1984755522117,0.5988835692405701,-0.19837786257266998,-0.23618808388710022,0.7390531897544861
4f267594-96e5-4969-84f8-417c04045618,b3765975-64a4-4e42-b897-01b5f8e34afa,1760607954397033499,-0.585556,0.135422,0.432968,-0.01416,-0.59082,0.835938,0.7350636498861388,-35.91869739148711,102.07480710967674,0.5996999740600586,-0.19863027334213257,-0.2359115034341812,0.7384114861488342
4f267594-96e5-4969-84f8-417c04045618,b3765975-64a4-4e42-b897-01b5f8e34afa,1760607954407715499,-0.644684,0.442505,0.249863,-0.009277,-0.599121,0.845703,0.7350618820698982,-35.9158815299362,101.987841945033,0.600264847278595,-0.19879458844661713,-0.2357425093650818,0.7379620671272278
4f267594-96e5-4969-84f8-417c04045618,b3765975-64a4-4e42-b897-01b5f8e34afa,1760607954415712499,-0.707626,0.623703,0.005722,-0.013184,-0.602539,0.836426,0.7330672458169376,-35.912782134119325,101.95232485766245,0.6004945635795593,-0.19883863627910614,-0.23567131161689758,0.737786054611206
4f267594-96e5-4969-84f8-417c04045618,b3765975-64a4-4e42-b897-01b5f8e34afa,1760607954423709499,-0.707626,0.806808,0.368118,-0.026855,-0.586914,0.844238,0.7439238601272901,-35.911444603782755,101.85309811082293,0.6011577248573303,-0.19910551607608795,-0.2354334592819214,0.7372497320175171
4f267594-96e5-4969-84f8-417c04045618,b3765975-64a4-4e42-b897-01b5f8e34afa,1760607954431706499,-0.341415,0.623703,-0.055313,-0.006348,-0.605469,0.84375,0.7429367524322104,-35.909406506865245,101.73304119968576,0.6019311547279358,-0.19933506846427917,-0.23521676659584045,0.7366255521774292
4f267594-96e5-4969-84f8-417c04045618,b3765975-64a4-4e42-b897-01b5f8e34afa,1760607954439703499,-0.217438,0.442505,-0.177383,-0.010742,-0.595215,0.831543,0.7427856430131102,-35.906278502975766,101.60174674133665,0.6027796268463135,-0.19958707690238953,-0.2349688559770584,0.7359423637390137
4f267594-96e5-4969-84f8-417c04045618,b3765975-64a4-4e42-b897-01b5f8e34afa,1760607954450350499,-0.217438,0.38147,-0.055313,-0.018066,-0.588867,0.831543,0.7399070861827488,-35.90269347286427,101.50545216503613,0.6033979058265686,-0.1997472196817398,-0.23479312658309937,0.7354481220245361
4f267594-96e5-4969-84f8-417c04045618,b3765975-64a4-4e42-b897-01b5f8e34afa,1760607954460997499,0.026703,0.50354,-0.482559,-0.021484,-0.607422,0.832519,0.7440792136953878,-35.900948303268144,101.4052171870754,0.6040524244308472,-0.19997012615203857,-0.23458509147167206,0.7349164485931396
4f267594-96e5-4969-84f8-417c04045618,b3765975-64a4-4e42-b897-01b5f8e34afa,1760607954471644499,-0.339508,-0.228882,-0.425339,-0.015625,-0.589844,0.825195,0.7441939816962947,-35.89761677819317,101.27493097430848,0.6048933863639832,-0.20021995902061462,-0.23433555662631989,0.7342360019683838
4f267594-96e5-4969-84f8-417c04045618,b3765975-64a4-4e42-b897-01b5f8e34afa,1760607954479638499,-0.097275,-0.169754,-0.055313,-0.022949,-0.591797,0.827637,0.7456595988824706,-35.89642259346412,101.18365839958904,0.6054829955101013,-0.2004096359014511,-0.23416058719158173,0.7337539792060852
4f267594-96e5-4969-84f8-417c04045618,b3765975-64a4-4e42-b897-01b5f8e34afa,1760607954487632499,-0.522614,0.015259,-0.238419,-0.025879,-0.589355,0.831543,0.7509524291052707,-35.891881183357846,101.15176640358422,0.6057055592536926,-0.20048479735851288,-0.23404765129089355,0.733585774898529
4f267594-96e5-4969-84f8-417c04045618,b3765975-64a4-4e42-b897-01b5f8e34afa,1760607954495626499,-0.461578,-0.045776,-0.177383,-0.017578,-0.593262,0.826172,0.7541044315235357,-35.88939002609183,101.05630518971478,0.6063270568847656,-0.2006867676973343,-0.23384788632392883,0.7330806255340576
4f267594-96e5-4969-84f8-417c04045618,b3765975-64a4-4e42-b897-01b5f8e34afa,1760607954503620499,-0.705719,-0.106812,-0.360489,-0.019043,-0.589355,0.824219,0.7584415685581056,-35.88720948122743,100.99208031671083,0.6067503094673157,-0.20083403587341309,-0.23369841277599335,0.7327377200126648
4f267594-96e5-4969-84f8-417c04045618,b3765975-64a4-4e42-b897-01b5f8e34afa,1760607954511633499,-0.276566,0.318527,-0.055313,-0.021484,-0.59082,0.830566,0.7628698453227666,-35.88252078533442,100.98317551415569,0.6068241000175476,-0.2008558213710785,-0.2336292713880539,0.7326926589012146
4f267594-96e5-4969-84f8-417c04045618,b3765975-64a4-4e42-b897-01b5f8e34afa,1760607954519646499,-0.888824,0.076294,-0.177383,-0.015137,-0.584473,0.833984,0.7645233817106044,-35.87724656761421,100.87911330298843,0.6075013875961304,-0.20105063915252686,-0.23340418934822083,0.7321495413780212
4f267594-96e5-4969-84f8-417c04045618,b3765975-64a4-4e42-b897-01b5f8e34afa,1760607954527659499,-1.010895,0.198364,-0.120163,-0.016113,-0.594727,0.839355,0.7635183297114824,-35.872453745097005,100.76242456542495,0.6082525849342346,-0.20125648379325867,-0.23317396640777588,0.7315424084663391
4f267594-96e5-4969-84f8-417c04045618,b3765975-64a4-4e42-b897-01b5f8e34afa,1760607954535672499,-0.461578,0.076294,0.310898,-0.021973,-0.582031,0.833496,0.768949406611388,-35.86686450091433,100.65035841522578,0.6089881062507629,-0.20148952305316925,-0.23291239142417908,0.7309494018554688
4f267594-96e5-4969-84f8-417c04045618,b3765975-64a4-4e42-b897-01b5f8e34afa,1760607954546354499,-0.522614,0.259399,0.368118,-0.01123,-0.592773,0.827637,0.7702821015765473,-35.863183203304004,100.55415198021343,0.6096104383468628,-0.20167401432991028,-0.2327125072479248,0.7304432392120361
4f267594-96e5-4969-84f8-417c04045618,b3765975-64a4-4e42-b897-01b5f8e34afa,1760607954557036499,-0.522614,-0.045776,0.432968,-0.007324,-0.587402,0.84082,0.7698581159696598,-35.85859344815588,100.48281093162643,0.6100718975067139,-0.20179183781147003,-0.23255981504917145,0.7300739884376526
4f267594-96e5-4969-84f8-417c04045618,b3765975-64a4-4e42-b897-01b5f8e34afa,1760607954567718499,-0.827789,0.198364,0.310898,-0.006348,-0.59668,0.834961,0.7654204011209895,-35.85486328001193,100.37773674644143,0.6107383370399475,-0.20195697247982025,-0.23237450420856476,0.7295299172401428
4f267594-96e5-4969-84f8-417c04045618,b3765975-64a4-4e42-b897-01b5f8e34afa,1760607954575690499,-0.764847,0.135422,0.551224,-0.020996,-0.591309,0.841309,0.7705187264576173,-35.84871806110072,100.3058739551228,0.6112163662910461,-0.20210249722003937,-0.2321813702583313,0.729150652885437
4f267594-96e5-4969-84f8-417c04045618,b3765975-64a4-4e42-b897-01b5f8e34afa,1760607954583662499,-0.461578,0.076294,0.368118,-0.012695,-0.576172,0.846191,0.773212929031227,-35.84187281321727,100.27789348901516,0.6114113330841064,-0.2021399885416031,-0.23207393288612366,0.7290109992027283
4f267594-96e5-4969-84f8-417c04045618,b3765975-64a4-4e42-b897-01b5f8e34afa,1760607954591634499,-0.705719,0.686646,0.368118,-0.015137,-0.587402,0.839844,0.7734421800033429,-35.838403407667535,100.19885667242914,0.6119202971458435,-0.20228303968906403,-0.2319110929965973,0.7285959720611572
4f267594-96e5-4969-84f8-417c04045618,b3765975-64a4-4e42-b897-01b5f8e34afa,1760607954599606499,-0.827789,0.259399,0.368118,-0.010742,-0.591309,0.835938,0.7719577467502052,-35.83401903374163,100.11085158733238,0.6124840378761292,-0.20242834091186523,-0.23173564672470093,0.7281376123428345
4f267594-96e5-4969-84f8-417c04045618,b3765975-64a4-4e42-b897-01b5f8e34afa,1760607954607611499,-0.644684,0.442505,-0.055313,-0.012207,-0.591797,0.820312,0.7735565703948567,-35.83095645037259,100.0331753372604,0.6129858493804932,-0.20257923007011414,-0.231570303440094,0.7277258634567261
4f267594-96e5-4969-84f8-417c04045618,b3765975-64a4-4e42-b897-01b5f8e34afa,1760607954615616499,-0.764847,0.318527,0.249863,-0.001953,-0.597656,0.836426,0.7701001351996302,-35.826556272508256,99.95005057107622,0.6135140061378479,-0.20270177721977234,-0.23141376674175262,0.7272963523864746
4f267594-96e5-4969-84f8-417c04045618,b3765975-64a4-4e42-b897-01b5f8e34afa,1760607954623621499,-0.522614,0.747681,-0.177383,-0.005371,-0.585938,0.838867,0.7716639141542083,-35.82099085007329,99.8643224206405,0.614070475101471,-0.20285511016845703,-0.23121824860572815,0.7268459796905518
4f267594-96e5-4969-84f8-417c04045618,b3765975-64a4-4e42-b897-01b5f8e34afa,1760607954631626499,-0.402451,0.318527,-0.303268,-0.007812,-0.591309,0.831543,0.7722070980451888,-35.81693846598447,99.75928880958077,0.6147443652153015,-0.20304876565933228,-0.2310035228729248,0.7262903451919556
4f267594-96e5-4969-84f8-417c04045618,b3765975-64a4-4e42-b897-01b5f8e34afa,1760607954642284499,-1.010895,0.198364,-0.120163,-0.022949,-0.594727,0.832519,0.7754938640119444,-35.81367113778295,99.6644853689248,0.6153571605682373,-0.2032431662082672,-0.23079703748226166,0.7257825136184692
4f267594-96e5-4969-84f8-417c04045618,b3765975-64a4-4e42-b897-01b5f8e34afa,1760607954652942499,-0.461578,0.259399,-0.238419,-0.010254,-0.598145,0.824707,0.7790003989269851,-35.810026634661696,99.58536192932733,0.6158713698387146,-0.2034052014350891,-0.23061464726924896,0.725358784198761
4f267594-96e5-4969-84f8-417c04045618,b3765975-64a4-4e42-b897-01b5f8e34afa,1760607954663600499,-0.766754,0.198364,-0.055313,-0.010742,-0.589355,0.836914,0.7854386650318738,-35.80663955448399,99.47840876310505,0.6165667772293091,-0.20364293456077576,-0.23036855459213257,0.7247793078422546
4f267594-96e5-4969-84f8-417c04045618,b3765975-64a4-4e42-b897-01b5f8e34afa,1760607954671619499,-0.705719,-0.106812,-0.055313,-0.014648,-0.584961,0.822266,0.785792121183414,-35.804055507012244,99.40148113647932,0.617058277130127,-0.20378592610359192,-0.2302134931087494,0.724370002746582
4f267594-96e5-4969-84f8-417c04045618,b3765975-64a4-4e42-b897-01b5f8e34afa,1760607954679638499,-0.705719,0.198364,-0.177383,-0.007812,-0.586426,0.819336,0.7878440713479145,-35.80289201152807,99.38455657422298,0.6171713471412659,-0.2038266658782959,-0.23016496002674103,0.7242776155471802
4f267594-96e5-4969-84f8-417c04045618,b3765975-64a4-4e42-b897-01b5f8e34afa,1760607954687657499,-1.132965,0.259399,0.188828,-0.003906,-0.588379,0.826172,0.7890190640056057,-35.798870649307034,99.3393659067427,0.6174660921096802,-0.20390328764915466,-0.23005272448062897,0.7240404486656189
4f267594-96e5-4969-84f8-417c04045618,b3765975-64a4-4e42-b897-01b5f8e34afa,1760607954695676499,-1.316071,0.076294,0.127792,-0.019043,-0.585449,0.818359,0.791318618976486,-35.79669619559664,99.25110759800914,0.6180318593978882,-0.20408326387405396,-0.22986942529678345,0.7235651016235352
4f267594-96e5-4969-84f8-417c04045618,b3765975-64a4-4e42-b897-01b5f8e34afa,1760607954706351499,-1.684189,0.318527,0.188828,-0.007324,-0.592285,0.827148,0.7957683397727032,-35.802466048951366,99.19650413556924,0.6183757185935974,-0.20425184071063995,-0.22978469729423523,0.7232505679130554
4f267594-96e5-4969-84f8-417c04045618,b3765975-64a4-4e42-b897-01b5f8e34afa,1760607954717026499,-1.379013,0.196457,-0.120163,-0.015137,-0.587891,0.836426,0.7994728914485196,-35.81571551336325,99.13312736212416,0.6187605857849121,-0.20447343587875366,-0.2297355979681015,0.7228742837905884
4f267594-96e5-4969-84f8-417c04045618,b3765975-64a4-4e42-b897-01b5f8e34afa,1760607954727701499,-1.377106,0.38147,-0.055313,-0.012207,-0.591309,0.825684,0.8026229699821771,-35.82674935754805,99.05339129777079,0.619251012802124,-0.2047124207019806,-0.22964607179164886,0.7224149703979492
4f267594-96e5-4969-84f8-417c04045618,b3765975-64a4-4e42-b897-01b5f8e34afa,1760607954735686499,-1.255035,0.442505,0.127792,-0.020996,-0.588867,0.840332,0.8080719215920626,-35.82407801516261,98.96166992870432,0.6198444962501526,-0.2049161046743393,-0.2294357717037201,0.7219149470329285
4f267594-96e5-4969-84f8-417c04045618,b3765975-64a4-4e42-b897-01b5f8e34afa,1760607954743671499,-1.316071,0.564575,-0.055313,-0.012207,-0.59375,0.835938,0.81522951949094,-35.834025434384145,98.88886988467524,0.6203004121780396,-0.205160453915596,-0.2293296754360199,0.7214875221252441
4f267594-96e5-4969-84f8-417c04045618,b3765975-64a4-4e42-b897-01b5f8e34afa,1760607954751656499,-1.501083,0.623703,0.005722,-0.018555,-0.592285,0.836426,0.8261680190412807,-35.84425997896768,98.8288169690747,0.6206828951835632,-0.20540457963943481,-0.22922754287719727,0.7211214900016785
4f267594-96e5-4969-84f8-417c04045618,b3765975-64a4-4e42-b897-01b5f8e34afa,1760607954759641499,-1.255035,0.259399,0.310898,-0.027832,-0.586914,0.853516,0.8293571592491953,-35.836518206548845,98.75150753366127,0.6211888194084167,-0.20553751289844513,-0.22902274131774902,0.7207129001617432
4f267594-96e5-4969-84f8-417c04045618,b3765975-64a4-4e42-b897-01b5f8e34afa,1760607954767659499,-1.073837,0.261307,0.368118,-0.004883,-0.591309,0.838379,0.8294306536706986,-35.83437227619956,98.65241522375942,0.6218156218528748,-0.20572435855865479,-0.2288309782743454,0.7201797962188721
4f267594-96e5-4969-84f8-417c04045618,b3765975-64a4-4e42-b897-01b5f8e34afa,1760607954775677499,-1.194,0.442505,-0.120163,-0.016113,-0.594238,0.836914,0.8365246875176031,-35.836009964363335,98.63075911060454,0.6219630837440491,-0.20582100749015808,-0.22876392304897308,0.7200461626052856
4f267594-96e5-4969-84f8-417c04045618,b3765975-64a4-4e42-b897-01b5f8e34afa,1760607954783695499,-1.316071,0.259399,0.249863,-0.01123,-0.595215,0.831055,0.8409782992519474,-35.83411685212705,98.58582950816373,0.6222574710845947,-0.20592844486236572,-0.22864708304405212,0.7197981476783752
4f267594-96e5-4969-84f8-417c04045618,b3765975-64a4-4e42-b897-01b5f8e34afa,1760607954791713499,-1.379013,0.196457,0.310898,-0.022949,-0.586426,0.828613,0.8467663898300141,-35.836423098533054,98.49753875052991,0.6228194832801819,-0.20615334808826447,-0.22847142815589905,0.71930330991745
4f267594-96e5-4969-84f8-417c04045618,b3765975-64a4-4e42-b897-01b5f8e34afa,1760607954802336499,-1.195908,0.501633,0.432968,-0.013184,-0.598145,0.837402,0.8451612520247962,-35.83439898490819,98.39112039804183,0.6234874725341797,-0.20634441077709198,-0.228275865316391,0.718731701374054
4f267594-96e5-4969-84f8-417c04045618,b3765975-64a4-4e42-b897-01b5f8e34afa,1760607954812959499,-1.073837,0.806808,0.368118,-0.02002,-0.592773,0.82959,0.8575256778700436,-35.83992200488563,98.29523290146544,0.624103844165802,-0.2066427767276764,-0.22807054221630096,0.7181759476661682
4f267594-96e5-4969-84f8-417c04045618,b3765975-64a4-4e42-b897-01b5f8e34afa,1760607954823582499,-1.255035,0.686646,0.005722,-0.014648,-0.613281,0.82666,0.8678833356338969,-35.852033928566016,98.2086775148942,0.624646008014679,-0.2069454938173294,-0.2279341071844101,0.7176606059074402
4f267594-96e5-4969-84f8-417c04045618,b3765975-64a4-4e42-b897-01b5f8e34afa,1760607954831606499,-1.195908,0.806808,0.249863,-0.015625,-0.592285,0.830566,0.8800640358454442,-35.86151215205314,98.12283184727848,0.6251914501190186,-0.20724385976791382,-0.22777213156223297,0.7171507477760315
4f267594-96e5-4969-84f8-417c04045618,b3765975-64a4-4e42-b897-01b5f8e34afa,1760607954839630499,-0.94986,0.564575,0.127792,-0.022461,-0.59668,0.832031,0.8832753812525895,-35.85986431760889,98.0320205554684,0.625768780708313,-0.20743542909622192,-0.22757993638515472,0.7166526913642883
4f267594-96e5-4969-84f8-417c04045618,b3765975-64a4-4e42-b897-01b5f8e34afa,1760607954847654499,-0.94986,0.442505,0.005722,-0.021973,-0.591309,0.832031,0.8892925937588556,-35.85920718306041,98.00382873885704,0.6259581446647644,-0.20752546191215515,-0.22749190032482147,0.7164891958236694
4f267594-96e5-4969-84f8-417c04045618,b3765975-64a4-4e42-b897-01b5f8e34afa,1760607954855678499,-1.194,0.198364,-0.238419,-0.031738,-0.61084,0.844727,0.9002072127621004,-35.86041136464688,97.96391616574265,0.6262272596359253,-0.20767946541309357,-0.22736752033233643,0.7162488102912903
4f267594-96e5-4969-84f8-417c04045618,b3765975-64a4-4e42-b897-01b5f8e34afa,1760607954863685499,-1.132965,-0.106812,-0.055313,-0.029297,-0.604492,0.829102,0.9069238492721855,-35.86108929038045,97.88946514123809,0.6267046332359314,-0.20787277817726135,-0.22720006108283997,0.7158282399177551
4f267594-96e5-4969-84f8-417c04045618,b3765975-64a4-4e42-b897-01b5f8e34afa,1760607954871692499,-1.132965,0.198364,-0.120163,-0.018555,-0.595215,0.833008,0.9098010326022642,-35.85886162627988,97.85889733274334,0.626905083656311,-0.20793922245502472,-0.22711488604545593,0.7156604528427124
4f267594-96e5-4969-84f8-417c04045618,b3765975-64a4-4e42-b897-01b5f8e34afa,1760607954879699499,-1.132965,0.198364,-0.482559,-0.022949,-0.599121,0.827637,0.9166084636151636,-35.858558816076574,97.8166872804827,0.62718266248703,-0.20806372165679932,-0.22699911892414093,0.715417742729187
4f267594-96e5-4969-84f8-417c04045618,b3765975-64a4-4e42-b897-01b5f8e34afa,1760607954887706499,-1.438141,0.38147,-0.608444,-0.027344,-0.598145,0.823242,0.9269796492939354,-35.86510710501546,97.72175197904262,0.6277844309806824,-0.20835207402706146,-0.22681088745594025,0.714865505695343
4f267594-96e5-4969-84f8-417c04045618,b3765975-64a4-4e42-b897-01b5f8e34afa,1760607954898370499,-1.377106,0.076294,-0.303268,-0.01123,-0.609375,0.827637,0.9282460959777384,-35.87609791370467,97.61667679762824,0.628423273563385,-0.20862776041030884,-0.22668161988258362,0.7142645716667175
4f267594-96e5-4969-84f8-417c04045618,b3765975-64a4-4e42-b897-01b5f8e34afa,1760607954909034499,-1.132965,-0.106812,-0.665665,-0.008789,-0.603027,0.834961,0.9266198152848539,-35.881716698527455,97.51000844732579,0.6290749907493591,-0.20885920524597168,-0.22653140127658844,0.7136706709861755
4f267594-96e5-4969-84f8-417c04045618,b3765975-64a4-4e42-b897-01b5f8e34afa,1760607954919698499,-1.562119,-0.291824,-0.608444,-0.024414,-0.601562,0.832031,0.9283489919983967,-35.88756263257937,97.42276646501348,0.6296114921569824,-0.20907431840896606,-0.22639937698841095,0.7131762504577637
4f267594-96e5-4969-84f8-417c04045618,b3765975-64a4-4e42-b897-01b5f8e34afa,1760607954927683499,-1.132965,-0.350952,-0.665665,-0.021484,-0.60791,0.827148,0.9338514135688789,-35.89106059245427,97.34100971398948,0.6301249861717224,-0.20928913354873657,-0.22624175250530243,0.7127096056938171
4f267594-96e5-4969-84f8-417c04045618,b3765975-64a4-4e42-b897-01b5f8e34afa,1760607954935668499,-1.379013,-0.352859,-0.608444,-0.015137,-0.597656,0.830566,0.9282764754848042,-35.902677423182894,97.24997271490581,0.6306599378585815,-0.20949772000312805,-0.2261786311864853,0.7121949791908264
4f267594-96e5-4969-84f8-417c04045618,b3765975-64a4-4e42-b897-01b5f8e34afa,1760607954943653499,-0.94986,-0.778198,-0.665665,-0.024902,-0.598145,0.829102,0.9247602301984356,-35.911748122951224,97.22506892525932,0.6307920813560486,-0.2095746248960495,-0.22620907425880432,0.7120457291603088
4f267594-96e5-4969-84f8-417c04045618,b3765975-64a4-4e42-b897-01b5f8e34afa,1760607954951638499,-0.766754,-0.778198,-0.482559,-0.013184,-0.597656,0.850098,0.9272613494436297,-35.910080248109615,97.1817544331654,0.631069004535675,-0.20966653525829315,-0.22610566020011902,0.711806058883667
4f267594-96e5-4969-84f8-417c04045618,b3765975-64a4-4e42-b897-01b5f8e34afa,1760607954959630499,-0.94986,-0.656128,-0.482559,-0.026367,-0.595703,0.834961,0.9304880927342236,-35.90661434600899,97.09997812116109,0.6315891742706299,-0.20982889831066132,-0.22591657936573029,0.7113566994667053
4f267594-96e5-4969-84f8-417c04045618,b3765975-64a4-4e42-b897-01b5f8e34afa,1760607954967622499,-0.766754,-0.778198,-0.055313,-0.018555,-0.591309,0.834961,0.9383735158076075,-35.90289792478717,97.03280163613664,0.6320280432701111,-0.20998981595039368,-0.2257268726825714,0.7109796404838562
4f267594-96e5-4969-84f8-417c04045618,b3765975-64a4-4e42-b897-01b5f8e34afa,1760607954975614499,-0.278473,-1.083374,0.062943,-0.026855,-0.597656,0.819824,0.9451237277654262,-35.90518167133412,96.98336237009755,0.6323440670967102,-0.21014158427715302,-0.22561323642730713,0.7106897830963135
4f267594-96e5-4969-84f8-417c04045618,b3765975-64a4-4e42-b897-01b5f8e34afa,1760607954983606499,-0.705719,-1.083374,0.062943,-0.015137,-0.597168,0.833496,0.9389862704796614,-35.90868197463763,96.90912400659653,0.632786214351654,-0.21026888489723206,-0.22553274035453796,0.7102839946746826
4f267594-96e5-4969-84f8-417c04045618,b3765975-64a4-4e42-b897-01b5f8e34afa,1760607954994287499,-1.010895,-1.38855,0.432968,-0.012695,-0.598633,0.819824,0.9378018144473216,-35.916037945390784,96.83330544402236,0.6332409381866455,-0.2104511260986328,-0.22544589638710022,0.7098522186279297
4f267594-96e5-4969-84f8-417c04045618,b3765975-64a4-4e42-b897-01b5f8e34afa,1760607955004968499,-0.94986,-1.327515,0.616074,-0.03125,-0.609375,0.818848,0.9330787909265646,-35.9278069922875,96.75448951874255,0.6336992979049683,-0.21064160764217377,-0.2254004180431366,0.7094009518623352
4f267594-96e5-4969-84f8-417c04045618,b3765975-64a4-4e42-b897-01b5f8e34afa,1760607955015649499,-0.766754,-1.449585,0.8564,-0.032715,-0.606445,0.831543,0.9346455731702124,-35.93616199025622,96.67641004105124,0.6341710686683655,-0.210850790143013,-0.22530010342597961,0.7089489698410034
4f267594-96e5-4969-84f8-417c04045618,b3765975-64a4-4e42-b897-01b5f8e34afa,1760607955023871499,-1.073837,-1.451492,1.344681,-0.016602,-0.597168,0.82959,0.9334213432604179,-35.94193751812448,96.59019250823538,0.6346918344497681,-0.21104446053504944,-0.22518405318260193,0.7084620594978333
4f267594-96e5-4969-84f8-417c04045618,b3765975-64a4-4e42-b897-01b5f8e34afa,1760607955032093499,-0.705719,-1.266479,1.226425,-0.017578,-0.612305,0.830566,0.9334145406443839,-35.95101706277739,96.52143847577823,0.6351009607315063,-0.21122951805591583,-0.22511379420757294,0.708062469959259
4f267594-96e5-4969-84f8-417c04045618,b3765975-64a4-4e42-b897-01b5f8e34afa,1760607955040315499,-0.524521,-1.512527,1.226425,-0.024902,-0.597656,0.827148,0.9322902510998488,-35.95645787068689,96.47476935842514,0.6353775858879089,-0.21134424209594727,-0.22506774961948395,0.7077946066856384
4f267594-96e5-4969-84f8-417c04045618,b3765975-64a4-4e42-b897-01b5f8e34afa,1760607955048537499,-0.522614,-1.876831,1.470566,-0.021484,-0.596191,0.836914,0.9263881418073171,-35.959287307263146,96.45257943990339,0.6354981064796448,-0.21136696636676788,-0.22507710754871368,0.7076766490936279
4f267594-96e5-4969-84f8-417c04045618,b3765975-64a4-4e42-b897-01b5f8e34afa,1760607955056319499,-0.156403,-1.754761,1.409531,-0.010742,-0.601562,0.824219,0.9192044035109947,-35.96040199838052,96.38390697619978,0.6359060406684875,-0.21146363019943237,-0.22499717772006989,0.7073066234588623
4f267594-96e5-4969-84f8-417c04045618,b3765975-64a4-4e42-b897-01b5f8e34afa,1760607955064101499,-0.097275,-1.817703,1.039505,-0.015137,-0.583496,0.818848,0.9152407585082966,-35.95881080040067,96.30735681551359,0.6363734006881714,-0.21158064901828766,-0.2248680144548416,0.7068922519683838
4f267594-96e5-4969-84f8-417c04045618,b3765975-64a4-4e42-b897-01b5f8e34afa,1760607955071883499,-0.402451,-1.634598,1.226425,-0.004883,-0.591309,0.827148,0.9058339309685587,-35.96125284985313,96.2230422756767,0.6368706226348877,-0.21170152723789215,-0.22477968037128448,0.706436276435852
4f267594-96e5-4969-84f8-417c04045618,b3765975-64a4-4e42-b897-01b5f8e34afa,1760607955079665499,-0.707626,-1.512527,1.16539,0.002441,-0.605469,0.830566,0.8953158674944678,-35.96520722369515,96.15306000063563,0.6372743844985962,-0.211795836687088,-0.22473332285881042,0.7060585021972656
4f267594-96e5-4969-84f8-417c04045618,b3765975-64a4-4e42-b897-01b5f8e34afa,1760607955087690499,-1.073837,-1.329422,0.677109,-0.006836,-0.59082,0.825684,0.8838880715670706,-35.97307029178003,96.0754709846091,0.6377161145210266,-0.2119211107492447,-0.22470210492610931,0.7056318521499634
4f267594-96e5-4969-84f8-417c04045618,b3765975-64a4-4e42-b897-01b5f8e34afa,1760607955095715499,-1.379013,-1.024246,0.738144,-0.004883,-0.59082,0.828613,0.8790747060034744,-35.985285683361674,95.97908212911341,0.6382785439491272,-0.21214808523654938,-0.2246260792016983,0.7050791382789612
4f267594-96e5-4969-84f8-417c04045618,b3765975-64a4-4e42-b897-01b5f8e34afa,1760607955103740499,-1.499176,-1.083374,1.16539,-0.018066,-0.600586,0.828613,0.8794005023019515,-35.9965572145511,95.91751770991897,0.6386380791664124,-0.21233321726322174,-0.22457988560199738,0.704712450504303
4f267594-96e5-4969-84f8-417c04045618,b3765975-64a4-4e42-b897-01b5f8e34afa,1760607955111765499,-1.682281,-1.083374,0.677109,-0.003418,-0.595703,0.835449,0.8647879266088186,-36.00776897018958,95.88753138349004,0.6387740969657898,-0.2123642861843109,-0.2246750146150589,0.7045494914054871
4f267594-96e5-4969-84f8-417c04045618,b3765975-64a4-4e42-b897-01b5f8e34afa,1760607955122392499,-1.317978,-1.024246,0.432968,-0.006348,-0.601074,0.830078,0.8544055834881241,-36.017256110599824,95.82206863570265,0.6391394138336182,-0.21248142421245575,-0.22467012703418732,0.704184353351593
4f267594-96e5-4969-84f8-417c04045618,b3765975-64a4-4e42-b897-01b5f8e34afa,1760607955133019499,-1.132965,-0.228882,0.494003,-0.008789,-0.595703,0.839844,0.8530374054982397,-36.01874332218988,95.77235904213573,0.6394395232200623,-0.21257871389389038,-0.22459474205970764,0.7039065361022949
4f267594-96e5-4969-84f8-417c04045618,b3765975-64a4-4e42-b897-01b5f8e34afa,1760607955143646499,-1.194,0.076294,0.005722,-0.001953,-0.587891,0.824219,0.8500557759966866,-36.01410603699742,95.74969234222588,0.6395810842514038,-0.21257908642292023,-0.22454072535037994,0.7037950158119202
4f267594-96e5-4969-84f8-417c04045618,b3765975-64a4-4e42-b897-01b5f8e34afa,1760607955154314499,-1.010895,-0.289917,-0.482559,-0.01416,-0.595703,0.82666,0.8491172054228185,-36.010363567802095,95.70247902571576,0.6398757696151733,-0.2126450389623642,-0.22443528473377228,0.7035408020019531
4f267594-96e5-4969-84f8-417c04045618,b3765975-64a4-4e42-b897-01b5f8e34afa,1760607955164982499,-1.255035,-0.534058,-0.360489,-0.011719,-0.59082,0.827637,0.8445778814672749,-36.01009176839101,95.63988280969522,0.6402515769004822,-0.21273821592330933,-0.22434277832508087,0.7032002210617065
4f267594-96e5-4969-84f8-417c04045618,b3765975-64a4-4e42-b897-01b5f8e34afa,1760607955175650499,-1.682281,-0.717163,-0.425339,-0.016113,-0.612793,0.842773,0.8390222751786739,-36.023801123642016,95.53751446367296,0.6408444046974182,-0.21298076212406158,-0.2242681384086609,0.7026103138923645
4f267594-96e5-4969-84f8-417c04045618,b3765975-64a4-4e42-b897-01b5f8e34afa,1760607955183668499,-1.316071,-0.778198,-0.238419,-0.014648,-0.59082,0.822754,0.8360652453710168,-36.03449679218043,95.43798129768074,0.6414297223091125,-0.21321693062782288,-0.2241654247045517,0.7020370960235596
4f267594-96e5-4969-84f8-417c04045618,b3765975-64a4-4e42-b897-01b5f8e34afa,1760607955191686499,-1.316071,-0.839233,-0.303268,-0.024902,-0.600098,0.842285,0.8333491955140823,-36.04329243609663,95.34586413433387,0.6419729590415955,-0.21342945098876953,-0.22406324744224548,0.7015084028244019
4f267594-96e5-4969-84f8-417c04045618,b3765975-64a4-4e42-b897-01b5f8e34afa,1760607955199704499,-1.316071,-1.144409,-0.120163,-0.018555,-0.604004,0.829102,0.8268750832884812,-36.05252148370459,95.26854097122204,0.6424171328544617,-0.21359243988990784,-0.22401218116283417,0.7010684013366699
4f267594-96e5-4969-84f8-417c04045618,b3765975-64a4-4e42-b897-01b5f8e34afa,1760607955207722499,-1.438141,-0.961304,-0.177383,-0.006348,-0.585938,0.826172,0.816285355080894,-36.06233662192868,95.22489804201959,0.6426459550857544,-0.21366775035858154,-0.22405049204826355,0.7008234262466431
4f267594-96e5-4969-84f8-417c04045618,b3765975-64a4-4e42-b897-01b5f8e34afa,1760607955215697499,-1.560211,-1.083374,-0.120163,-0.026855,-0.608887,0.844238,0.8071752106733694,-36.07505008050259,95.23060786440789,0.6425706148147583,-0.21367180347442627,-0.22419030964374542,0.7008465528488159
4f267594-96e5-4969-84f8-417c04045618,b3765975-64a4-4e42-b897-01b5f8e34afa,1760607955223672499,-1.804352,-1.205444,-0.055313,-0.009277,-0.604492,0.849609,0.795648358333399,-36.08657456731065,95.15135628612371,0.6430121064186096,-0.2138206958770752,-0.22417789697647095,0.7004000544548035
4f267594-96e5-4969-84f8-417c04045618,b3765975-64a4-4e42-b897-01b5f8e34afa,1760607955231647499,-1.316071,-1.266479,-0.238419,-0.023926,-0.591309,0.850586,0.7911700846085278,-36.09339277556119,95.07600244461007,0.6434516310691833,-0.2139788120985031,-0.22410421073436737,0.6999715566635132
4f267594-96e5-4969-84f8-417c04045618,b3765975-64a4-4e42-b897-01b5f8e34afa,1760607955239622499,-0.888824,-1.083374,-0.177383,-0.019043,-0.594238,0.835449,0.7818138427412046,-36.09876072458004,95.04109789096964,0.64363694190979,-0.21401993930339813,-0.2241244912147522,0.6997820734977722
4f267594-96e5-4969-84f8-417c04045618,b3765975-64a4-4e42-b897-01b5f8e34afa,1760607955250320499,-0.644684,-0.534058,-0.543594,-0.016113,-0.594727,0.84082,0.7858617751846414,-36.09188094154169,94.98810478771327,0.6439806818962097,-0.21410980820655823,-0.22396057844161987,0.6994907259941101
4f267594-96e5-4969-84f8-417c04045618,b3765975-64a4-4e42-b897-01b5f8e34afa,1760607955261018499,0.085831,-0.658035,-0.482559,-0.008301,-0.587891,0.84668,0.7877475381402972,-36.084438620759826,94.89876393377865,0.6445428133010864,-0.21425418555736542,-0.22373738884925842,0.6990000605583191
4f267594-96e5-4969-84f8-417c04045618,b3765975-64a4-4e42-b897-01b5f8e34afa,1760607955271716499,0.637054,-0.473022,-0.665665,-0.008789,-0.604492,0.848144,0.7878784778282213,-36.07790326411365,94.78739138793661,0.6452338099479675,-0.21443571150302887,-0.22348831593990326,0.6983863115310669
4f267594-96e5-4969-84f8-417c04045618,b3765975-64a4-4e42-b897-01b5f8e34afa,1760607955279700499,1.367569,-0.41008,-0.303268,-0.01709,-0.589844,0.845215,0.7796473867768087,-36.05748522522133,94.6924272946674,0.6458328366279602,-0.21445618569850922,-0.22323206067085266,0.6979081630706787
4f267594-96e5-4969-84f8-417c04045618,b3765975-64a4-4e42-b897-01b5f8e34afa,1760607955287684499,1.003265,-0.411987,-0.7267,-0.022949,-0.591797,0.833008,0.7784796155187343,-36.04392264114183,94.63570016118054,0.6462002396583557,-0.21448343992233276,-0.22304955124855042,0.6976180076599121
4f267594-96e5-4969-84f8-417c04045618,b3765975-64a4-4e42-b897-01b5f8e34afa,1760607955295668499,1.245499,-0.47493,-0.97084,-0.020996,-0.59668,0.833984,0.7752423729208325,-36.02847579725333,94.56381783115286,0.6466590762138367,-0.21451689302921295,-0.2228388637304306,0.697249710559845
4f267594-96e5-4969-84f8-417c04045618,b3765975-64a4-4e42-b897-01b5f8e34afa,1760607955303652499,1.125336,-0.717163,-1.096725,-0.022461,-0.588867,0.820801,0.7643735493559285,-36.01390312156765,94.51941705057322,0.6469341516494751,-0.21445521712303162,-0.22272808849811554,0.6970489025115967
4f267594-96e5-4969-84f8-417c04045618,b3765975-64a4-4e42-b897-01b5f8e34afa,1760607955311654499,0.637054,-0.595093,-0.97084,-0.012207,-0.591309,0.833008,0.7600257933480498,-36.00302269365104,94.54039353742733,0.6468175649642944,-0.214326873421669,-0.22272542119026184,0.6971973776817322
4f267594-96e5-4969-84f8-417c04045618,b3765975-64a4-4e42-b897-01b5f8e34afa,1760607955319656499,0.82016,-0.778198,-1.214981,-0.014648,-0.600098,0.836914,0.747080601828302,-35.991861598636625,94.51681183386762,0.6469558477401733,-0.2142312228679657,-0.22268623113632202,0.6971110105514526
4f267594-96e5-4969-84f8-417c04045618,b3765975-64a4-4e42-b897-01b5f8e34afa,1760607955327658499,0.637054,-0.900269,-0.97084,-0.032227,-0.577148,0.833984,0.7476740820982999,-35.98027880886424,94.44344722542411,0.6474239230155945,-0.21431222558021545,-0.22247497737407684,0.6967188715934753
4f267594-96e5-4969-84f8-417c04045618,b3765975-64a4-4e42-b897-01b5f8e34afa,1760607955335660499,0.637054,-0.717163,-1.337051,-0.033691,-0.580078,0.824707,0.738659312144672,-35.96820821621813,94.3358243133771,0.6480821371078491,-0.2143983393907547,-0.22225096821784973,0.6961517333984375
4f267594-96e5-4969-84f8-417c04045618,b3765975-64a4-4e42-b897-01b5f8e34afa,1760607955346329499,0.391006,-1.386642,-1.459122,-0.010254,-0.594238,0.8125,0.7225517513980125,-35.96616149844145,94.24136175316329,0.6486282348632812,-0.21447215974330902,-0.22215285897254944,0.6956515312194824
4f267594-96e5-4969-84f8-417c04045618,b3765975-64a4-4e42-b897-01b5f8e34afa,1760607955356998499,0.209808,-1.266479,-1.520157,-0.035156,-0.581543,0.824219,0.7103062505122048,-35.959135172936016,94.17753217434705,0.6490045189857483,-0.21448196470737457,-0.2220599204301834,0.69532710313797
4f267594-96e5-4969-84f8-417c04045618,b3765975-64a4-4e42-b897-01b5f8e34afa,1760607955367667499,-0.524521,-1.817703,-1.153946,-0.01709,-0.574219,0.817383,0.695476392907123,-35.96167320093259,94.09945856113097,0.6494448184967041,-0.21455758810043335,-0.22201323509216309,0.6949074864387512
4f267594-96e5-4969-84f8-417c04045618,b3765975-64a4-4e42-b897-01b5f8e34afa,1760607955375658499,-1.132965,-2.059937,-0.84877,-0.019531,-0.591309,0.815918,0.6751688062561191,-35.96948460504025,94.0484065480045,0.649700939655304,-0.21457748115062714,-0.2220802903175354,0.6946404576301575
4f267594-96e5-4969-84f8-417c04045618,b3765975-64a4-4e42-b897-01b5f8e34afa,1760607955383649499,-1.379013,-2.428055,-0.543594,-0.010254,-0.606934,0.8125,0.6547125219250486,-35.9807530821047,94.02259323358436,0.6497974395751953,-0.214567169547081,-0.22221648693084717,0.6945098042488098
4f267594-96e5-4969-84f8-417c04045618,b3765975-64a4-4e42-b897-01b5f8e34afa,1760607955391640499,-1.926422,-2.609253,-0.482559,-0.01709,-0.599609,0.826172,0.6357752476361439,-35.99341288142253,93.9932190468975,0.649915874004364,-0.21458089351654053,-0.22234585881233215,0.6943533420562744
4f267594-96e5-4969-84f8-417c04045618,b3765975-64a4-4e42-b897-01b5f8e34afa,1760607955399631499,-2.170563,-3.219604,-0.055313,-0.018555,-0.584961,0.818359,0.6149123953658903,-36.00946987182267,93.95511544495632,0.650077223777771,-0.2146192044019699,-0.22249044477939606,0.694144070148468
4f267594-96e5-4969-84f8-417c04045618,b3765975-64a4-4e42-b897-01b5f8e34afa,1760607955407641499,-2.597809,-3.097534,0.127792,-0.029297,-0.597656,0.82959,0.5952276342907185,-36.031875480904624,93.94603743387468,0.6500534415245056,-0.21464423835277557,-0.22272126376628876,0.6940845847129822
4f267594-96e5-4969-84f8-417c04045618,b3765975-64a4-4e42-b897-01b5f8e34afa,1760607955415651499,-2.355576,-3.099442,0.551224,-0.01123,-0.594727,0.815918,0.5745132532655083,-36.0540190955447,93.92113085642603,0.6501238942146301,-0.2146923840045929,-0.22292664647102356,0.6939377784729004
4f267594-96e5-4969-84f8-417c04045618,b3765975-64a4-4e42-b897-01b5f8e34afa,1760607955423661499,-2.597809,-3.28064,0.677109,-0.018555,-0.61084,0.822266,0.5540881554051883,-36.0805766750255,93.86766991303087,0.6503596305847168,-0.21482296288013458,-0.2231036275625229,0.6936194896697998
4f267594-96e5-4969-84f8-417c04045618,b3765975-64a4-4e42-b897-01b5f8e34afa,1760607955431671499,-2.538681,-3.404617,0.982285,-0.008301,-0.612305,0.822754,0.5335640928557613,-36.10557730549926,93.83995612377399,0.6504419445991516,-0.2148941606283188,-0.2233199030160904,0.6934506297111511
4f267594-96e5-4969-84f8-417c04045618,b3765975-64a4-4e42-b897-01b5f8e34afa,1760607955442638499,-2.721786,-3.644943,1.104355,0.000488,-0.606934,0.827637,0.5073269416217835,-36.129026745011735,93.80231012452431,0.6505758762359619,-0.21494148671627045,-0.2235405147075653,0.6932392716407776
4f267594-96e5-4969-84f8-417c04045618,b3765975-64a4-4e42-b897-01b5f8e34afa,1760607955453605499,-2.414703,-3.707886,0.8564,0.00293,-0.604492,0.816406,0.4780740325683943,-36.153347562267136,93.73939480443845,0.6508549451828003,-0.21502505242824554,-0.22373607754707336,0.6928882002830505
4f267594-96e5-4969-84f8-417c04045618,b3765975-64a4-4e42-b897-01b5f8e34afa,1760607955464572499,-2.658844,-3.341675,0.982285,-0.007812,-0.614746,0.827637,0.4568605165624033,-36.179537698152004,93.67067508962322,0.6511810421943665,-0.21517939865589142,-0.22388631105422974,0.6924852728843689
4f267594-96e5-4969-84f8-417c04045618,b3765975-64a4-4e42-b897-01b5f8e34afa,1760607955472369499,-2.658844,-3.036499,0.982285,-0.009277,-0.616211,0.829102,0.4332408332441951,-36.20448949150572,93.58623396789939,0.6515992879867554,-0.21534320712089539,-0.2240130454301834,0.6919997334480286
4f267594-96e5-4969-84f8-417c04045618,b3765975-64a4-4e42-b897-01b5f8e34afa,1760607955480166499,-2.170563,-3.219604,0.921249,0.00293,-0.614258,0.834473,0.4065142319995645,-36.22535947685428,93.57854935251693,0.6515551209449768,-0.21531519293785095,-0.22427688539028168,0.6919646263122559
4f267594-96e5-4969-84f8-417c04045618,b3765975-64a4-4e42-b897-01b5f8e34afa,1760607955487963499,-1.621246,-3.40271,1.28746,-0.005859,-0.606445,0.815918,0.3835458555595215,-36.243538964017596,93.55662555817993,0.6516091227531433,-0.2153225690126419,-0.22447629272937775,0.6918467879295349
4f267594-96e5-4969-84f8-417c04045618,b3765975-64a4-4e42-b897-01b5f8e34afa,1760607955495760499,-1.926422,-3.097534,0.494003,-0.003418,-0.610352,0.814941,0.35550153588480415,-36.2621839525385,93.48830326719298,0.6519322395324707,-0.21539299190044403,-0.22462016344070435,0.691473662853241
4f267594-96e5-4969-84f8-417c04045618,b3765975-64a4-4e42-b897-01b5f8e34afa,1760607955506411499,-1.867294,-2.61116,0.8564,0.004883,-0.603027,0.813477,0.3331299967592959,-36.28179549728187,93.46495417783915,0.6519930958747864,-0.21541514992713928,-0.22482210397720337,0.6913437247276306
4f267594-96e5-4969-84f8-417c04045618,b3765975-64a4-4e42-b897-01b5f8e34afa,1760607955517062499,-2.048492,-2.548218,0.432968,0.004883,-0.62207,0.820801,0.31141242188469587,-36.30595900367076,93.43722256928442,0.6520731449127197,-0.21547579765319824,-0.2250395566225052,0.691178560256958
4f267594-96e5-4969-84f8-417c04045618,b3765975-64a4-4e42-b897-01b5f8e34afa,1760607955527713499,-2.109528,-2.487183,0.432968,0.001465,-0.611328,0.825195,0.2894723379478526,-36.32646051865035,93.39117231389946,0.6522698402404785,-0.21555040776729584,-0.22520165145397186,0.690916895866394
4f267594-96e5-4969-84f8-417c04045618,b3765975-64a4-4e42-b897-01b5f8e34afa,1760607955535688499,-2.292633,-1.876831,0.494003,0.0,-0.628418,0.818848,0.27255056527862787,-36.35169664359771,93.33501499445504,0.6525283455848694,-0.21570223569869995,-0.2253446727991104,0.6905786991119385
4f267594-96e5-4969-84f8-417c04045618,b3765975-64a4-4e42-b897-01b5f8e34afa,1760607955543663499,-2.10762,-2.000809,0.249863,0.0,-0.614258,0.824219,0.2508634623758163,-36.37473107375992,93.26114219452843,0.6528880000114441,-0.2158478945493698,-0.22546806931495667,0.6901528239250183
4f267594-96e5-4969-84f8-417c04045618,b3765975-64a4-4e42-b897-01b5f8e34afa,1760607955551638499,-1.865387,-1.693726,0.249863,0.016113,-0.628906,0.828125,0.2306887899720586,-36.39684581079339,93.16964348213342,0.6533580422401428,-0.21603232622146606,-0.22554394602775574,0.6896253824234009
4f267594-96e5-4969-84f8-417c04045618,b3765975-64a4-4e42-b897-01b5f8e34afa,1760607955559613499,-1.379013,-1.512527,0.062943,0.006836,-0.632324,0.838379,0.20989235798291725,-36.41326846929188,93.08443766839909,0.6537991166114807,-0.21616850793361664,-0.22560079395771027,0.6891458630561829
4f267594-96e5-4969-84f8-417c04045618,b3765975-64a4-4e42-b897-01b5f8e34afa,1760607955567621499,-0.766754,-0.778198,-0.238419,0.011719,-0.615723,0.834961,0.19621868095901918,-36.42027784032044,93.00733514990091,0.6542226672172546,-0.2162780463695526,-0.2255755364894867,0.6887176632881165
4f267594-96e5-4969-84f8-417c04045618,b3765975-64a4-4e42-b897-01b5f8e34afa,1760607955575629499,-0.522614,-0.411987,0.127792,-0.016602,-0.609375,0.833008,0.19955404685123168,-36.41889449202544,93.02325589327481,0.6541361212730408,-0.21625885367393494,-0.2255782186985016,0.6888050436973572
4f267594-96e5-4969-84f8-417c04045618,b3765975-64a4-4e42-b897-01b5f8e34afa,1760607955583637499,-0.402451,-0.53215,-0.120163,-0.004883,-0.60498,0.831543,0.19878369380747363,-36.41793454054554,93.01321668971093,0.6541967391967773,-0.21626850962638855,-0.22555789351463318,0.6887511014938354
4f267594-96e5-4969-84f8-417c04045618,b3765975-64a4-4e42-b897-01b5f8e34afa,1760607955591645499,-0.276566,-0.841141,0.368118,-0.003418,-0.620605,0.836426,0.1981377867056869,-36.41824402660126,92.9685332869804,0.6544634103775024,-0.2163543403148651,-0.2254790961742401,0.6884965300559998
4f267594-96e5-4969-84f8-417c04045618,b3765975-64a4-4e42-b897-01b5f8e34afa,1760607955602324499,-0.276566,-0.841141,0.432968,-0.007812,-0.611328,0.842285,0.1982794518922288,-36.41423201099908,92.92320223907903,0.654743492603302,-0.2164214700460434,-0.22536855936050415,0.6882452964782715
4f267594-96e5-4969-84f8-417c04045618,b3765975-64a4-4e42-b897-01b5f8e34afa,1760607955613003499,-0.03624,-0.658035,0.494003,-0.026367,-0.608398,0.835449,0.2034473423273961,-36.41495968042409,92.87932631213215,0.655015766620636,-0.21654292941093445,-0.22526051104068756,0.6879833340644836
4f267594-96e5-4969-84f8-417c04045618,b3765975-64a4-4e42-b897-01b5f8e34afa,1760607955623682499,-0.095367,-0.900269,1.039505,-0.01709,-0.605957,0.822266,0.20650327813477137,-36.41579524669517,92.81438578055106,0.6554099917411804,-0.21669365465641022,-0.2251252979040146,0.6876046061515808
4f267594-96e5-4969-84f8-417c04045618,b3765975-64a4-4e42-b897-01b5f8e34afa,1760607955631664499,0.331879,-0.778198,1.527786,-0.006348,-0.619141,0.834961,0.20872704205510498,-36.41362194211308,92.73932069933299,0.6558687090873718,-0.21684199571609497,-0.22495752573013306,0.6871752142906189
4f267594-96e5-4969-84f8-417c04045618,b3765975-64a4-4e42-b897-01b5f8e34afa,1760607955639646499,0.085831,-0.780106,1.592636,0.000488,-0.609863,0.837402,0.21193708338623637,-36.41291300927529,92.6560177004318,0.6563757061958313,-0.2170206606388092,-0.2247771918773651,0.686693549156189
4f267594-96e5-4969-84f8-417c04045618,b3765975-64a4-4e42-b897-01b5f8e34afa,1760607955647628499,0.026703,-0.900269,1.897812,0.004883,-0.60498,0.845215,0.2158044110071583,-36.41226703848108,92.62241873588115,0.6565858125686646,-0.21710601449012756,-0.22468751668930054,0.6864950656890869
4f267594-96e5-4969-84f8-417c04045618,b3765975-64a4-4e42-b897-01b5f8e34afa,1760607955655610499,0.268936,-0.841141,1.592636,-0.003906,-0.597168,0.837891,0.22032382813838874,-36.40536014810164,92.57606135564676,0.6568852663040161,-0.2171844094991684,-0.224532350897789,0.6862345337867737
4f267594-96e5-4969-84f8-417c04045618,b3765975-64a4-4e42-b897-01b5f8e34afa,1760607955663775499,1.123428,-1.024246,1.527786,0.013184,-0.608887,0.848633,0.21453101023281101,-36.39069149573272,92.53276297725255,0.6571606397628784,-0.21715055406093597,-0.22439557313919067,0.6860262751579285
4f267594-96e5-4969-84f8-417c04045618,b3765975-64a4-4e42-b897-01b5f8e34afa,1760607955671940499,1.308441,-0.900269,1.409531,-0.007812,-0.587402,0.839355,0.21551673441081154,-36.3718994293816,92.52469470971899,0.6572460532188416,-0.21706461906433105,-0.22426199913024902,0.6860153079032898
4f267594-96e5-4969-84f8-417c04045618,b3765975-64a4-4e42-b897-01b5f8e34afa,1760607955680105499,2.222061,-1.146317,1.16539,0.0,-0.592285,0.859863,0.20676366875251279,-36.34248097922067,92.55316576700055,0.6571134924888611,-0.21678800880908966,-0.22418974339962006,0.6862533092498779
4f267594-96e5-4969-84f8-417c04045618,b3765975-64a4-4e42-b897-01b5f8e34afa,1760607955688270499,2.347946,-1.024246,1.039505,0.004395,-0.595703,0.84082,0.2011301173791943,-36.31351549354843,92.51467275399746,0.6573871374130249,-0.21666361391544342,-0.22397561371326447,0.686100423336029
4f267594-96e5-4969-84f8-417c04045618,b3765975-64a4-4e42-b897-01b5f8e34afa,1760607955697739499,3.015518,-1.329422,1.16539,0.00293,-0.600586,0.849609,0.19122705079794783,-36.28393581976146,92.45364915193838,0.6577883958816528,-0.21655400097370148,-0.2237398326396942,0.6858273148536682
4f267594-96e5-4969-84f8-417c04045618,b3765975-64a4-4e42-b897-01b5f8e34afa,1760607955707208499,2.895355,-1.266479,1.104355,0.00293,-0.582031,0.840332,0.1843504483890363,-36.24590088120421,92.37643652632005,0.6583080887794495,-0.21644532680511475,-0.2234056293964386,0.6854718327522278
4f267594-96e5-4969-84f8-417c04045618,b3765975-64a4-4e42-b897-01b5f8e34afa,1760607955716677499,3.139496,-1.327515,0.8564,-0.000977,-0.573242,0.836914,0.17307922914614293,-36.209545903793554,92.32823053676091,0.6586424112319946,-0.21626316010951996,-0.2231617271900177,0.685287594795227
4f267594-96e5-4969-84f8-417c04045618,b3765975-64a4-4e42-b897-01b5f8e34afa,1760607955726146499,2.651215,-1.083374,0.738144,0.015625,-0.575195,0.827148,0.157867343012456,-36.175384761960835,92.27940079487699,0.6589686274528503,-0.21607103943824768,-0.22295261919498444,0.685102641582489
4f267594-96e5-4969-84f8-417c04045618,b3765975-64a4-4e42-b897-01b5f8e34afa,1760607955735615499,2.468109,-1.266479,0.494003,0.015625,-0.585449,0.82959,0.14513883911867828,-36.14270038570297,92.22854451957818,0.6593089699745178,-0.215906023979187,-0.22273443639278412,0.6848981380462646
4f267594-96e5-4969-84f8-417c04045618,b3765975-64a4-4e42-b897-01b5f8e34afa,1760607955743626499,2.407074,-1.38855,0.368118,0.013672,-0.581543,0.841797,0.1281899123331656,-36.11000512924149,92.20217192370642,0.6594947576522827,-0.2156679779291153,-0.2225867509841919,0.6848422884941101
4f267594-96e5-4969-84f8-417c04045618,b3765975-64a4-4e42-b897-01b5f8e34afa,1760607955751637499,2.038956,-0.963211,0.249863,0.014648,-0.562988,0.824707,0.11491284881692405,-36.079963137957556,92.21669133305906,0.6594383120536804,-0.21538767218589783,-0.22251078486442566,0.6850094795227051
4f267594-96e5-4969-84f8-417c04045618,b3765975-64a4-4e42-b897-01b5f8e34afa,1760607955759648499,2.038956,-0.352859,-0.055313,0.005859,-0.576172,0.835938,0.10524165728918362,-36.05115546416345,92.13903483629015,0.6599374413490295,-0.2153148204088211,-0.22224825620651245,0.6846368908882141
4f267594-96e5-4969-84f8-417c04045618,b3765975-64a4-4e42-b897-01b5f8e34afa,1760607955767659499,1.308441,-0.595093,-0.360489,0.01123,-0.592285,0.831055,0.09053345268382365,-36.03126931755896,92.08147935580381,0.6602898836135864,-0.21522408723831177,-0.22210600972175598,0.6843716502189636
4f267594-96e5-4969-84f8-417c04045618,b3765975-64a4-4e42-b897-01b5f8e34afa,1760607955778323499,0.82016,0.076294,-0.177383,0.008789,-0.570312,0.82373,0.08291269710918439,-36.02110365610067,92.0758396870853,0.6603277921676636,-0.21513095498085022,-0.2220785915851593,0.6843732595443726
4f267594-96e5-4969-84f8-417c04045618,b3765975-64a4-4e42-b897-01b5f8e34afa,1760607955788987499,0.453949,-0.045776,-0.79155,0.006348,-0.566895,0.825195,0.07600639632854943,-36.01081079376368,92.01121476502782,0.6607195138931274,-0.21515561640262604,-0.22193558514118195,0.6840337514877319
4f267594-96e5-4969-84f8-417c04045618,b3765975-64a4-4e42-b897-01b5f8e34afa,1760607955799651499,-0.217438,0.259399,-1.096725,0.021484,-0.578613,0.825195,0.06653326145457995,-36.003426458284615,91.93397613318176,0.6611759066581726,-0.2152060568332672,-0.22180110216140747,0.6836203932762146
4f267594-96e5-4969-84f8-417c04045618,b3765975-64a4-4e42-b897-01b5f8e34afa,1760607955807646499,-0.461578,1.052856,-1.398087,0.015137,-0.57373,0.817871,0.05834803059308759,-35.99577651062558,91.84699806949769,0.6616930961608887,-0.2152813971042633,-0.22163933515548706,0.6831485629081726
4f267594-96e5-4969-84f8-417c04045618,b3765975-64a4-4e42-b897-01b5f8e34afa,1760607955815641499,-0.278473,0.930786,-1.886368,0.007813,-0.57373,0.826172,0.04978578521631684,-35.98756233656519,91.77132393171907,0.6621429324150085,-0.21532924473285675,-0.22149764001369476,0.682743489742279
4f267594-96e5-4969-84f8-417c04045618,b3765975-64a4-4e42-b897-01b5f8e34afa,1760607955823636499,-1.012802,1.29509,-2.008438,0.012695,-0.570801,0.820801,0.04210098208541091,-35.98709791742522,91.7217283692049,0.6624243855476379,-0.21537664532661438,-0.22144608199596405,0.6824721693992615
4f267594-96e5-4969-84f8-417c04045618,b3765975-64a4-4e42-b897-01b5f8e34afa,1760607955831631499,-1.621246,1.174927,-2.191544,0.016602,-0.571777,0.830566,0.033233659810659906,-35.990777323617515,91.62417814149215,0.6629810929298401,-0.21553358435630798,-0.22133585810661316,0.6819176077842712
4f267594-96e5-4969-84f8-417c04045618,b3765975-64a4-4e42-b897-01b5f8e34afa,1760607955839635499,-2.536774,1.235962,-2.801895,0.012695,-0.591797,0.816895,0.02482168142387335,-36.0079332722306,91.55429045762173,0.663348376750946,-0.21571780741214752,-0.2213551104068756,0.6814957857131958
4f267594-96e5-4969-84f8-417c04045618,b3765975-64a4-4e42-b897-01b5f8e34afa,1760607955847639499,-2.658844,1.174927,-2.679825,0.003418,-0.56543,0.82666,0.02087757511893656,-36.020188669537326,91.53525143785467,0.66343092918396,-0.21580208837985992,-0.2214149832725525,0.6813692450523376
4f267594-96e5-4969-84f8-417c04045618,b3765975-64a4-4e42-b897-01b5f8e34afa,1760607955855643499,-3.574371,0.930786,-2.679825,0.003418,-0.58252,0.811523,0.011205341342132519,-36.04549392817026,91.4393997599749,0.6639342904090881,-0.2160763442516327,-0.22144079208374023,0.6807834506034851
4f267594-96e5-4969-84f8-417c04045618,b3765975-64a4-4e42-b897-01b5f8e34afa,1760607955863647499,-4.001617,1.541138,-2.923965,-0.001953,-0.585449,0.816406,0.004661886085433207,-36.07760126461692,91.34396307567053,0.6644278168678284,-0.21640804409980774,-0.2214892953634262,0.6801804900169373
4f267594-96e5-4969-84f8-417c04045618,b3765975-64a4-4e42-b897-01b5f8e34afa,1760607955874321499,-4.18663,1.356125,-2.86293,0.002441,-0.57373,0.818848,-0.0010667888475360235,-36.10654358506299,91.28540055621251,0.6647095680236816,-0.21665509045124054,-0.22158360481262207,0.6797958016395569
4f267594-96e5-4969-84f8-417c04045618,b3765975-64a4-4e42-b897-01b5f8e34afa,1760607955884995499,-4.367828,2.151489,-3.107071,-0.004395,-0.588867,0.820312,0.0018330866778163266,-36.13745112378882,91.2174165937761,0.6650598645210266,-0.21698309481143951,-0.22162143886089325,0.6793360710144043
4f267594-96e5-4969-84f8-417c04045618,b3765975-64a4-4e42-b897-01b5f8e34afa,1760607955895669499,-4.611969,1.724243,-2.923965,-0.002441,-0.589844,0.81543,0.006741044335062913,-36.17593966866071,91.13296244877183,0.6654968857765198,-0.2173989862203598,-0.22166095674037933,0.6787619590759277
4f267594-96e5-4969-84f8-417c04045618,b3765975-64a4-4e42-b897-01b5f8e34afa,1760607955903669499,-4.734039,1.907349,-2.679825,-0.028809,-0.586914,0.823242,0.018078146762774555,-36.21182175185287,91.05234156717925,0.665928065776825,-0.21783049404621124,-0.22165445983409882,0.6782026290893555
4f267594-96e5-4969-84f8-417c04045618,b3765975-64a4-4e42-b897-01b5f8e34afa,1760607955911669499,-4.732132,1.600266,-2.191544,-0.025879,-0.599121,0.817383,0.029014863695888134,-36.2510147728915,91.00423427991853,0.6661593914031982,-0.21821604669094086,-0.2217312902212143,0.6778262853622437
4f267594-96e5-4969-84f8-417c04045618,b3765975-64a4-4e42-b897-01b5f8e34afa,1760607955919669499,-4.796982,0.989914,-1.886368,-0.035156,-0.605469,0.822754,0.03949981863569822,-36.29245603049423,90.9902153673691,0.6661837697029114,-0.2185460478067398,-0.22188876569271088,0.6776444911956787
4f267594-96e5-4969-84f8-417c04045618,b3765975-64a4-4e42-b897-01b5f8e34afa,1760607955927669499,-4.980087,0.623703,-1.642227,-0.041504,-0.602539,0.834473,0.05318951044677951,-36.332523747755516,90.91254807366944,0.666593074798584,-0.21901030838489532,-0.22189778089523315,0.6770889163017273
4f267594-96e5-4969-84f8-417c04045618,b3765975-64a4-4e42-b897-01b5f8e34afa,1760607955935655499,-5.039215,0.076294,-0.97084,-0.03125,-0.594238,0.817871,0.06615616026528794,-36.37123758797907,90.8736299013689,0.6667742729187012,-0.21938744187355042,-0.22197666764259338,0.6767624616622925
4f267594-96e5-4969-84f8-417c04045618,b3765975-64a4-4e42-b897-01b5f8e34afa,1760607955943641499,-5.10025,-0.656128,-0.7267,-0.037109,-0.618652,0.822266,0.07823560748138521,-36.41895617748186,90.88623446701837,0.6666321754455566,-0.21971185505390167,-0.22221246361732483,0.6767198443412781
4f267594-96e5-4969-84f8-417c04045618,b3765975-64a4-4e42-b897-01b5f8e34afa,1760607955951627499,-4.673004,-1.571655,0.127792,-0.032715,-0.616699,0.816406,0.08214499280989285,-36.46539051089469,90.89085786263146,0.6665237545967102,-0.21999596059322357,-0.2224729210138321,0.676648736000061
4f267594-96e5-4969-84f8-417c04045618,b3765975-64a4-4e42-b897-01b5f8e34afa,1760607955959613499,-5.161285,-1.876831,0.738144,-0.020996,-0.615723,0.824219,0.08141602889964342,-36.51108023655504,90.87588730903941,0.6665233373641968,-0.22028636932373047,-0.22271828353405,0.6764739155769348
4f267594-96e5-4969-84f8-417c04045618,b3765975-64a4-4e42-b897-01b5f8e34afa,1760607955970290499,-5.283356,-2.853394,1.527786,-0.015625,-0.610352,0.827637,0.07596773736871644,-36.55846107978482,90.85497953490294,0.6665453910827637,-0.22057032585144043,-0.2229895442724228,0.6762703061103821
4f267594-96e5-4969-84f8-417c04045618,b3765975-64a4-4e42-b897-01b5f8e34afa,1760607955980967499,-5.283356,-3.036499,1.775742,-0.03418,-0.608398,0.822754,0.07488631749618374,-36.60115941517552,90.83824709276436,0.6665601134300232,-0.22084477543830872,-0.22321566939353943,0.6760916113853455
4f267594-96e5-4969-84f8-417c04045618,b3765975-64a4-4e42-b897-01b5f8e34afa,1760607955991644499,-5.161285,-3.707886,2.386093,-0.009277,-0.612793,0.825195,0.06732631815884592,-36.64745189503565,90.81968407418897,0.6665659546852112,-0.22110551595687866,-0.22349704802036285,0.6759076714515686
4f267594-96e5-4969-84f8-417c04045618,b3765975-64a4-4e42-b897-01b5f8e34afa,1760607955999642499,-5.283356,-4.013062,2.630234,-0.01416,-0.613281,0.812012,0.05541409085378867,-36.69499566395542,90.77617007083022,0.6667078137397766,-0.22139669954776764,-0.22376279532909393,0.6755843758583069
4f267594-96e5-4969-84f8-417c04045618,b3765975-64a4-4e42-b897-01b5f8e34afa,1760607956007640499,-5.466461,-4.013062,2.93541,0.000488,-0.606934,0.814453,0.041772542722622735,-36.74328784870009,90.75867360109027,0.6666911840438843,-0.22163134813308716,-0.22409309446811676,0.6754143834114075
4f267594-96e5-4969-84f8-417c04045618,b3765975-64a4-4e42-b897-01b5f8e34afa,1760607956015638499,-5.527496,-4.318237,3.118515,-0.004395,-0.613281,0.828125,0.029109930092412556,-36.79004689151704,90.76792849678532,0.6665215492248535,-0.22181053459644318,-0.22446031868457794,0.6754010915756226
4f267594-96e5-4969-84f8-417c04045618,b3765975-64a4-4e42-b897-01b5f8e34afa,1760607956023636499,-5.222321,-4.684448,3.728867,-0.00293,-0.618652,0.830566,0.016563264524703372,-36.83621644013085,90.7786402933532,0.6663445234298706,-0.22198408842086792,-0.22482618689537048,0.6753969788551331
4f267594-96e5-4969-84f8-417c04045618,b3765975-64a4-4e42-b897-01b5f8e34afa,1760607956034293499,-5.039215,-4.867554,3.728867,0.008789,-0.618652,0.816406,-0.005513015344119606,-36.881607266714816,90.78488468668925,0.666176438331604,-0.22210559248924255,-0.22523418068885803,0.6753869652748108
4f267594-96e5-4969-84f8-417c04045618,b3765975-64a4-4e42-b897-01b5f8e34afa,1760607956044950499,-4.673004,-5.172729,4.217148,0.013672,-0.61377,0.819336,-0.02750725074889054,-36.92419786220595,90.8751091242575,0.665518581867218,-0.22204585373401642,-0.2257879227399826,0.6758701205253601
4f267594-96e5-4969-84f8-417c04045618,b3765975-64a4-4e42-b897-01b5f8e34afa,1760607956055607499,-4.917145,-5.477905,4.095078,0.01123,-0.612793,0.831055,-0.05012265225231415,-36.965697973738635,90.92789793326357,0.6650819778442383,-0.22204932570457458,-0.2262662798166275,0.676138699054718
4f267594-96e5-4969-84f8-417c04045618,b3765975-64a4-4e42-b897-01b5f8e34afa,1760607956063680499,-4.489899,-5.477905,4.339218,0.020996,-0.626953,0.82373,-0.07927480508031726,-37.00639281191782,90.90668828165828,0.6650703549385071,-0.22215552628040314,-0.22663436830043793,0.675991952419281
4f267594-96e5-4969-84f8-417c04045618,b3765975-64a4-4e42-b897-01b5f8e34afa,1760607956071753499,-4.306793,-5.53894,4.152298,0.019531,-0.619629,0.818848,-0.10938473342654349,-37.04659192256116,90.88593021380846,0.6650548577308655,-0.22225244343280792,-0.22700585424900055,0.6758506894111633
4f267594-96e5-4969-84f8-417c04045618,b3765975-64a4-4e42-b897-01b5f8e34afa,1760607956079826499,-4.308701,-4.930496,4.152298,0.013672,-0.614746,0.807129,-0.1328502797230228,-37.08776586973641,90.86761309068038,0.6650359630584717,-0.22238948941230774,-0.2273491472005844,0.6757088303565979
4f267594-96e5-4969-84f8-417c04045618,b3765975-64a4-4e42-b897-01b5f8e34afa,1760607956087899499,-4.245758,-4.684448,3.789902,0.030762,-0.630859,0.823242,-0.16001963927607754,-37.12619688895881,90.843164884277,0.6650509834289551,-0.22250106930732727,-0.22768576443195343,0.6755439639091492
4f267594-96e5-4969-84f8-417c04045618,b3765975-64a4-4e42-b897-01b5f8e34afa,1760607956095828499,-4.003525,-4.442215,3.911972,0.038574,-0.62207,0.824707,-0.19041525746754104,-37.16257508576514,90.82143209772659,0.6650473475456238,-0.22257646918296814,-0.22803418338298798,0.6754051446914673
4f267594-96e5-4969-84f8-417c04045618,b3765975-64a4-4e42-b897-01b5f8e34afa,1760607956103757499,-4.001617,-4.196167,3.240585,0.026855,-0.626953,0.817871,-0.22231471382021153,-37.19790117421343,90.80164252181207,0.6650310754776001,-0.22263316810131073,-0.22838881611824036,0.6752825975418091
4f267594-96e5-4969-84f8-417c04045618,b3765975-64a4-4e42-b897-01b5f8e34afa,1760607956111686499,-3.940582,-3.585815,3.30162,0.03125,-0.635254,0.807129,-0.2499109021974382,-37.23524790502658,90.84946366124359,0.6646206974983215,-0.2225920855998993,-0.22886164486408234,0.675540030002594
4f267594-96e5-4969-84f8-417c04045618,b3765975-64a4-4e42-b897-01b5f8e34afa,1760607956119615499,-3.698349,-3.221512,2.630234,0.042969,-0.618164,0.812988,-0.2783942117885245,-37.268934611632474,90.86518079847941,0.6644047498703003,-0.22258837521076202,-0.22925564646720886,0.6756201386451721
4f267594-96e5-4969-84f8-417c04045618,b3765975-64a4-4e42-b897-01b5f8e34afa,1760607956130318499,-3.879547,-2.059937,2.199173,0.03418,-0.617676,0.808594,-0.2974490346951689,-37.302133504652964,90.82738782340877,0.6645238995552063,-0.22274455428123474,-0.2294880747795105,0.6753724813461304
4f267594-96e5-4969-84f8-417c04045618,b3765975-64a4-4e42-b897-01b5f8e34afa,1760607956141021499,-3.391266,-1.266479,1.653671,0.037598,-0.618652,0.802734,-0.31665197891011077,-37.33573570615019,90.82869796124687,0.6644113063812256,-0.22282394766807556,-0.22979965806007385,0.6753511428833008
4f267594-96e5-4969-84f8-417c04045618,b3765975-64a4-4e42-b897-01b5f8e34afa,1760607956151724499,-3.515244,-0.53215,1.16539,0.037598,-0.618164,0.811035,-0.3292399098521163,-37.367492549483266,90.81859650488664,0.6643827557563782,-0.22295452654361725,-0.2300397902727127,0.6752543449401855
4f267594-96e5-4969-84f8-417c04045618,b3765975-64a4-4e42-b897-01b5f8e34afa,1760607956159708499,-3.757477,-0.045776,0.249863,0.040039,-0.636719,0.810547,-0.34338979548760085,-37.40309452568611,90.75658160700563,0.6646491289138794,-0.22320257127285004,-0.23021043837070465,0.6748520135879517
4f267594-96e5-4969-84f8-417c04045618,b3765975-64a4-4e42-b897-01b5f8e34afa,1760607956167692499,-3.818512,0.930786,-0.055313,0.036133,-0.62793,0.801758,-0.3528253719536232,-37.439942419304245,90.68460436197482,0.6649807691574097,-0.2235058695077896,-0.230341374874115,0.6743801236152649
4f267594-96e5-4969-84f8-417c04045618,b3765975-64a4-4e42-b897-01b5f8e34afa,1760607956175676499,-3.879547,1.480103,-0.665665,0.030273,-0.617676,0.809082,-0.3582812585620602,-37.47268784651814,90.60245982436929,0.6653879284858704,-0.22382940351963043,-0.23040494322776794,0.6738492846488953
4f267594-96e5-4969-84f8-417c04045618,b3765975-64a4-4e42-b897-01b5f8e34afa,1760607956183660499,-4.18663,2.149582,-1.520157,0.031738,-0.621094,0.806152,-0.36916746779727355,-37.50934618844927,90.53351789647105,0.6656982898712158,-0.2241174429655075,-0.2305484563112259,0.6733977794647217
4f267594-96e5-4969-84f8-417c04045618,b3765975-64a4-4e42-b897-01b5f8e34afa,1760607956191646499,-4.18663,2.637863,-2.191544,0.031738,-0.637695,0.806641,-0.37558457130027234,-37.55211400766038,90.46572526675523,0.6659982800483704,-0.2244652658700943,-0.23070374131202698,0.6729319095611572
4f267594-96e5-4969-84f8-417c04045618,b3765975-64a4-4e42-b897-01b5f8e34afa,1760607956199632499,-3.820419,3.126144,-2.744675,0.015625,-0.644531,0.811035,-0.37551827335676385,-37.59163050636008,90.39729113532242,0.6663211584091187,-0.22483371198177338,-0.23080065846443176,0.6724558472633362
4f267594-96e5-4969-84f8-417c04045618,b3765975-64a4-4e42-b897-01b5f8e34afa,1760607956207618499,-4.123688,3.311157,-3.290176,0.025879,-0.632812,0.80127,-0.383735759322794,-37.62931023073606,90.35212821443812,0.6664941310882568,-0.22509612143039703,-0.23098035156726837,0.6721348762512207
4f267594-96e5-4969-84f8-417c04045618,b3765975-64a4-4e42-b897-01b5f8e34afa,1760607956215604499,-4.062653,3.616333,-3.839493,0.010254,-0.62793,0.817383,-0.3812888391756459,-37.66480140223307,90.27138764229943,0.6669012904167175,-0.22548016905784607,-0.23101499676704407,0.6715902090072632
4f267594-96e5-4969-84f8-417c04045618,b3765975-64a4-4e42-b897-01b5f8e34afa,1760607956223616499,-3.879547,3.860474,-4.571915,0.033691,-0.629883,0.812988,-0.3866321320698834,-37.70028848289486,90.1283430335776,0.6676570177078247,-0.22594434022903442,-0.23097172379493713,0.6706976294517517
4f267594-96e5-4969-84f8-417c04045618,b3765975-64a4-4e42-b897-01b5f8e34afa,1760607956231628499,-3.574371,3.555298,-4.75502,0.008789,-0.640137,0.819824,-0.38985273992762803,-37.73491433448856,90.00871437679491,0.6682806015014648,-0.22636893391609192,-0.23095647990703583,0.6699382066726685
4f267594-96e5-4969-84f8-417c04045618,b3765975-64a4-4e42-b897-01b5f8e34afa,1760607956239640499,-3.391266,3.189087,-4.999161,-0.012207,-0.641602,0.824219,-0.3896318152112839,-37.76527041718861,89.92584846458314,0.668704092502594,-0.22671474516391754,-0.23096835613250732,0.6693943738937378
4f267594-96e5-4969-84f8-417c04045618,b3765975-64a4-4e42-b897-01b5f8e34afa,1760607956247652499,-3.332138,3.126144,-5.243301,-0.001953,-0.630859,0.835938,-0.3914738571264421,-37.79121310790944,89.84024351249809,0.6691478490829468,-0.22702831029891968,-0.23096075654029846,0.6688470840454102
4f267594-96e5-4969-84f8-417c04045618,b3765975-64a4-4e42-b897-01b5f8e34afa,1760607956258311499,-2.536774,3.189087,-4.75502,-0.017578,-0.625977,0.827148,-0.3912014787034903,-37.81320236468563,89.75341829528428,0.6696105003356934,-0.2273336499929428,-0.23091502487659454,0.6682958602905273
4f267594-96e5-4969-84f8-417c04045618,b3765975-64a4-4e42-b897-01b5f8e34afa,1760607956268970499,-2.233505,3.004074,-4.938126,-0.019531,-0.617188,0.811035,-0.3882890241845184,-37.827892880852396,89.66110369764786,0.6701247692108154,-0.22762267291545868,-0.23080018162727356,0.6677214503288269
4f267594-96e5-4969-84f8-417c04045618,b3765975-64a4-4e42-b897-01b5f8e34afa,1760607956279629499,-1.501083,2.759933,-4.63295,-0.022949,-0.642578,0.822266,-0.3858649084325104,-37.842554575477486,89.59005258026045,0.6705138087272644,-0.22786583006381989,-0.23072999715805054,0.6672720909118652
4f267594-96e5-4969-84f8-417c04045618,b3765975-64a4-4e42-b897-01b5f8e34afa,1760607956287633499,-1.255035,2.029419,-3.839493,-0.019531,-0.629395,0.816895,-0.3824284737965399,-37.8522715659968,89.50911042265798,0.6709721684455872,-0.22810576856136322,-0.23060527443885803,0.6667723059654236
4f267594-96e5-4969-84f8-417c04045618,b3765975-64a4-4e42-b897-01b5f8e34afa,1760607956295637499,-0.947952,2.088547,-3.04985,-0.005371,-0.629395,0.822266,-0.37598897056881336,-37.86088810633164,89.4511143182197,0.6713050007820129,-0.2283105105161667,-0.23050206899642944,0.6664027571678162
4f267594-96e5-4969-84f8-417c04045618,b3765975-64a4-4e42-b897-01b5f8e34afa,1760607956303641499,-0.707626,1.600266,-2.744675,-0.014648,-0.620117,0.813965,-0.37166691480100955,-37.86470245729507,89.42089368957032,0.6714816689491272,-0.22841881215572357,-0.23043864965438843,0.6662095785140991
4f267594-96e5-4969-84f8-417c04045618,b3765975-64a4-4e42-b897-01b5f8e34afa,1760607956311645499,-0.461578,0.930786,-1.947403,-0.014648,-0.625488,0.814941,-0.3660358618495561,-37.86586411682615,89.42919167820828,0.6714423894882202,-0.22844168543815613,-0.23042893409729004,0.6662446856498718
4f267594-96e5-4969-84f8-417c04045618,b3765975-64a4-4e42-b897-01b5f8e34afa,1760607956322322499,-0.156403,0.259399,-1.153946,-0.013184,-0.626465,0.829102,-0.35682243594417024,-37.86169734455381,89.39550614421647,0.6716651916503906,-0.22853848338127136,-0.23028360307216644,0.6660371422767639
4f267594-96e5-4969-84f8-417c04045618,b3765975-64a4-4e42-b897-01b5f8e34afa,1760607956332999499,-0.402451,-0.291824,-0.425339,-0.019043,-0.620117,0.817383,-0.3419794909320747,-37.85572390966869,89.36909323319423,0.6718606352806091,-0.22864271700382233,-0.23010925948619843,0.6658644676208496
4f267594-96e5-4969-84f8-417c04045618,b3765975-64a4-4e42-b897-01b5f8e34afa,1760607956343676499,-0.156403,-0.411987,0.062943,-0.02002,-0.620605,0.802734,-0.3282281676293482,-37.853942903554646,89.3474656254726,0.672017514705658,-0.22875556349754333,-0.2299751341342926,0.6657137274742126
4f267594-96e5-4969-84f8-417c04045618,b3765975-64a4-4e42-b897-01b5f8e34afa,1760607956351648499,-0.097275,-0.780106,0.8564,-0.005371,-0.625488,0.810059,-0.3181973193912724,-37.852469547477135,89.29900501201884,0.6723220944404602,-0.2289023995399475,-0.22981098294258118,0.6654123067855835
4f267594-96e5-4969-84f8-417c04045618,b3765975-64a4-4e42-b897-01b5f8e34afa,1760607956359620499,-0.217438,-0.900269,1.527786,-0.007324,-0.608398,0.810059,-0.30939005973503353,-37.84804522887315,89.25865664699768,0.6725829839706421,-0.22900840640068054,-0.22965304553508759,0.6651666760444641
4f267594-96e5-4969-84f8-417c04045618,b3765975-64a4-4e42-b897-01b5f8e34afa,1760607956367592499,-0.705719,-0.961304,2.016068,-0.009766,-0.608398,0.80957,-0.29624505681320085,-37.848198934568124,89.23985981047164,0.6727181077003479,-0.22912326455116272,-0.2295392006635666,0.665029764175415
4f267594-96e5-4969-84f8-417c04045618,b3765975-64a4-4e42-b897-01b5f8e34afa,1760607956375564499,-0.461578,-1.449585,2.264023,0.003418,-0.626953,0.814941,-0.2917953597761996,-37.851894409239144,89.24177745811598,0.6727083921432495,-0.22916698455810547,-0.22953832149505615,0.6650248169898987
4f267594-96e5-4969-84f8-417c04045618,b3765975-64a4-4e42-b897-01b5f8e34afa,1760607956386262499,-0.156403,-1.815796,2.569199,0.005859,-0.632324,0.806152,-0.28637257579998454,-37.851675237398716,89.27650462849778,0.6725181341171265,-0.22912758588790894,-0.22957466542720795,0.6652182936668396
4f267594-96e5-4969-84f8-417c04045618,b3765975-64a4-4e42-b897-01b5f8e34afa,1760607956396960499,-0.585556,-1.874924,3.05748,0.003906,-0.619629,0.8125,-0.2827516923680825,-37.85081857055516,89.28616456268604,0.6724710464477539,-0.22912421822547913,-0.2295677661895752,0.6652694344520569
4f267594-96e5-4969-84f8-417c04045618,b3765975-64a4-4e42-b897-01b5f8e34afa,1760607956407658499,-0.827789,-1.815796,3.175735,-0.00293,-0.616699,0.808594,-0.27579485436841167,-37.854007313188845,89.31933599253263,0.6722859144210815,-0.22911690175533295,-0.22961175441741943,0.6654438376426697
4f267594-96e5-4969-84f8-417c04045618,b3765975-64a4-4e42-b897-01b5f8e34afa,1760607956415691499,-1.377106,-1.876831,2.93541,0.01123,-0.626953,0.806641,-0.2728296646157003,-37.865227213783534,89.38306117335247,0.6718989610671997,-0.22907230257987976,-0.22978682816028595,0.6657894849777222
4f267594-96e5-4969-84f8-417c04045618,b3765975-64a4-4e42-b897-01b5f8e34afa,1760607956423724499,-1.255035,-1.754761,2.93541,0.013184,-0.636719,0.812988,-0.27145655468064317,-37.87494842637479,89.39193107413338,0.6718304753303528,-0.22911959886550903,-0.22985289990901947,0.6658194661140442
4f267594-96e5-4969-84f8-417c04045618,b3765975-64a4-4e42-b897-01b5f8e34afa,1760607956431757499,-0.94986,-1.571655,2.874374,0.022461,-0.620117,0.804687,-0.27514353345515585,-37.88305545932244,89.38504926664122,0.6718466281890869,-0.22915956377983093,-0.2299077808856964,0.6657705307006836
4f267594-96e5-4969-84f8-417c04045618,b3765975-64a4-4e42-b897-01b5f8e34afa,1760607956439790499,-1.621246,-1.38855,2.874374,0.02002,-0.625488,0.803223,-0.27758590194477073,-37.89620733311269,89.37242204951352,0.6718884110450745,-0.22924795746803284,-0.22997312247753143,0.6656753420829773
4f267594-96e5-4969-84f8-417c04045618,b3765975-64a4-4e42-b897-01b5f8e34afa,1760607956447754499,-1.436234,-1.024246,2.199173,0.015625,-0.624023,0.807129,-0.27982931118173265,-37.906801408220325,89.35267667561287,0.6719771027565002,-0.22933678328990936,-0.23000819981098175,0.6655430793762207
4f267594-96e5-4969-84f8-417c04045618,b3765975-64a4-4e42-b897-01b5f8e34afa,1760607956455718499,-1.377106,-0.717163,2.264023,0.012207,-0.618164,0.813965,-0.2780775027433089,-37.91666240289811,89.329102031059,0.6720975041389465,-0.2294522076845169,-0.23000790178775787,0.6653817892074585
4f267594-96e5-4969-84f8-417c04045618,b3765975-64a4-4e42-b897-01b5f8e34afa,1760607956463682499,-1.132965,-0.656128,1.527786,0.025391,-0.616211,0.813477,-0.28410425477343326,-37.92418182183487,89.30074430390339,0.6722347736358643,-0.229518324136734,-0.23003004491329193,0.6652126312255859
4f267594-96e5-4969-84f8-417c04045618,b3765975-64a4-4e42-b897-01b5f8e34afa,1760607956471646499,-1.379013,-0.169754,1.344681,0.021484,-0.620605,0.824707,-0.28747084634725745,-37.929938771977724,89.29621975825822,0.6722425818443298,-0.22954168915748596,-0.23007409274578094,0.6651814579963684
4f267594-96e5-4969-84f8-417c04045618,b3765975-64a4-4e42-b897-01b5f8e34afa,1760607956482402499,-1.316071,-0.045776,0.799179,0.014648,-0.623047,0.805176,-0.2892751387823212,-37.94093951793074,89.32580013465288,0.6720448732376099,-0.22953642904758453,-0.2302076816558838,0.6653368473052979
4f267594-96e5-4969-84f8-417c04045618,b3765975-64a4-4e42-b897-01b5f8e34afa,1760607956493158499,-1.438141,0.259399,0.551224,0.01416,-0.625488,0.822266,-0.28697134534017593,-37.950639966525365,89.28172792714834,0.6722856163978577,-0.22969533503055573,-0.23016206920146942,0.6650545001029968
4f267594-96e5-4969-84f8-417c04045618,b3765975-64a4-4e42-b897-01b5f8e34afa,1760607956503914499,-1.255035,0.564575,-0.120163,0.006348,-0.620117,0.812988,-0.28573880106284644,-37.9593050012108,89.24702792447917,0.672471821308136,-0.22982312738895416,-0.2301354557275772,0.6648312211036682
4f267594-96e5-4969-84f8-417c04045618,b3765975-64a4-4e42-b897-01b5f8e34afa,1760607956511846499,-1.255035,0.991821,-0.303268,0.024414,-0.628906,0.814453,-0.29280108168510777,-37.96369607669138,89.23814217584075,0.6725002527236938,-0.22982579469680786,-0.23018451035022736,0.6647846102714539
4f267594-96e5-4969-84f8-417c04045618,b3765975-64a4-4e42-b897-01b5f8e34afa,1760607956519778499,-1.255035,0.686646,-0.543594,0.020508,-0.624512,0.813477,-0.29810307228788996,-37.97481144451041,89.21556345077987,0.6725979447364807,-0.22990575432777405,-0.23023469746112823,0.6646407246589661
4f267594-96e5-4969-84f8-417c04045618,b3765975-64a4-4e42-b897-01b5f8e34afa,1760607956527710499,-1.132965,0.747681,-0.79155,0.010254,-0.636719,0.8125,-0.3019081606153471,-37.97838041507189,89.17392340350658,0.672824501991272,-0.22998832166194916,-0.23019413650035858,0.6643968820571899
4f267594-96e5-4969-84f8-417c04045618,b3765975-64a4-4e42-b897-01b5f8e34afa,1760607956535642499,-0.827789,0.930786,-0.7267,0.004395,-0.635742,0.8125,-0.30243781245352336,-37.9868635088745,89.13501647045487,0.6730316877365112,-0.23011331260204315,-0.23016822338104248,0.6641526818275452
4f267594-96e5-4969-84f8-417c04045618,b3765975-64a4-4e42-b897-01b5f8e34afa,1760607956543657499,-0.766754,0.930786,-0.91362,0.006348,-0.618164,0.817871,-0.3011481518648917,-37.989958447053304,89.09763335870453,0.6732445955276489,-0.23021408915519714,-0.23010346293449402,0.6639243364334106
4f267594-96e5-4969-84f8-417c04045618,b3765975-64a4-4e42-b897-01b5f8e34afa,1760607956551672499,-1.073837,0.623703,-0.91362,0.023438,-0.62793,0.800781,-0.3039465123652554,-37.99750383377842,89.05892942112625,0.6734477877616882,-0.2303200215101242,-0.23008576035499573,0.6636875867843628
4f267594-96e5-4969-84f8-417c04045618,b3765975-64a4-4e42-b897-01b5f8e34afa,1760607956559687499,-0.707626,0.806808,-1.096725,0.009277,-0.624023,0.821777,-0.3039392466068907,-37.99969994259483,89.02457237885584,0.6736422777175903,-0.23040194809436798,-0.23002934455871582,0.6634813547134399
4f267594-96e5-4969-84f8-417c04045618,b3765975-64a4-4e42-b897-01b5f8e34afa,1760607956567702499,-0.461578,0.808716,-0.97084,0.004883,-0.633301,0.816895,-0.3043823106949373,-37.995824175084095,89.03006750618347,0.6736174821853638,-0.23036551475524902,-0.23002059757709503,0.6635222434997559
4f267594-96e5-4969-84f8-417c04045618,b3765975-64a4-4e42-b897-01b5f8e34afa,1760607956578353499,-0.402451,0.932693,-0.79155,-0.00293,-0.621582,0.81543,-0.3020231801645125,-37.99153919553618,89.0811352678214,0.6733351945877075,-0.23025144636631012,-0.2300845980644226,0.663826048374176
4f267594-96e5-4969-84f8-417c04045618,b3765975-64a4-4e42-b897-01b5f8e34afa,1760607956589004499,-0.278473,0.930786,-0.84877,0.009766,-0.619629,0.807129,-0.3046382228994798,-37.98649035561592,89.08446564445799,0.6733209490776062,-0.2301998883485794,-0.23007746040821075,0.6638608574867249
4f267594-96e5-4969-84f8-417c04045618,b3765975-64a4-4e42-b897-01b5f8e34afa,1760607956599655499,-0.034332,0.991821,-0.7267,0.012695,-0.614258,0.812012,-0.3077587648543395,-37.98100887633437,89.02054123268893,0.6736961007118225,-0.23027783632278442,-0.2299356758594513,0.6635022759437561
4f267594-96e5-4969-84f8-417c04045618,b3765975-64a4-4e42-b897-01b5f8e34afa,1760607956607650499,-0.034332,0.991821,-0.360489,0.001465,-0.633301,0.831055,-0.30600187079190044,-37.97650791158492,88.96589963242248,0.6740251183509827,-0.2303711175918579,-0.22978951036930084,0.663186252117157
4f267594-96e5-4969-84f8-417c04045618,b3765975-64a4-4e42-b897-01b5f8e34afa,1760607956615645499,0.026703,1.296997,-0.608444,0.011719,-0.624023,0.820312,-0.3041588023943101,-37.97232474932257,88.91605447578004,0.6743257641792297,-0.23045703768730164,-0.22965428233146667,0.6628975868225098
4f267594-96e5-4969-84f8-417c04045618,b3765975-64a4-4e42-b897-01b5f8e34afa,1760607956623640499,0.026703,1.419067,-0.360489,0.009766,-0.60791,0.807129,-0.293954480275724,-37.96607433229421,88.879275757816,0.674571692943573,-0.23055288195610046,-0.22948415577411652,0.6626729369163513
4f267594-96e5-4969-84f8-417c04045618,b3765975-64a4-4e42-b897-01b5f8e34afa,1760607956631635499,0.148773,1.052856,-0.238419,-0.000977,-0.63623,0.822754,-0.2884569374158845,-37.96590994393144,88.85278647509917,0.6747362017631531,-0.23063674569129944,-0.22939753532409668,0.6625062227249146
4f267594-96e5-4969-84f8-417c04045618,b3765975-64a4-4e42-b897-01b5f8e34afa,1760607956639699499,-0.097275,0.749588,-0.425339,0.005859,-0.618164,0.81543,-0.2855521878956044,-37.96099281963263,88.85069321819724,0.6747641563415527,-0.23062874376773834,-0.2293478399515152,0.6624976992607117
