section id,recording id,timestamp [ns],gyro x [deg/s],gyro y [deg/s],gyro z [deg/s],acceleration x [g],acceleration y [g],acceleration z [g],roll [deg],pitch [deg],yaw [deg],quaternion w,quaternion x,quaternion y,quaternion z
658c7690-8968-4e6f-854c-4875192787e4,9ad6aa91-cc65-468c-868e-81e05a072707,1762167954752098061,1.296997,0.1297,0.600815,-0.023437,-0.461426,0.92041,1.1096429692140026,-26.35497192169401,116.72685350878216,0.5125733613967896,-0.12759770452976227,-0.18913590908050537,0.827777087688446
658c7690-8968-4e6f-854c-4875192787e4,9ad6aa91-cc65-468c-868e-81e05a072707,1762167954762759061,1.419067,0.007629,0.967026,-0.01416,-0.453125,0.921387,1.111105006383249,-26.345152971421676,116.52781133432232,0.5140224099159241,-0.12789286673069,-0.18883638083934784,0.8269008994102478
658c7690-8968-4e6f-854c-4875192787e4,9ad6aa91-cc65-468c-868e-81e05a072707,1762167954773420061,1.174927,-0.053406,0.905991,-0.023437,-0.446777,0.931641,1.1149910021565546,-26.333770716185164,116.33182122706974,0.5154534578323364,-0.12819282710552216,-0.18851760029792786,0.8260359764099121
658c7690-8968-4e6f-854c-4875192787e4,9ad6aa91-cc65-468c-868e-81e05a072707,1762167954781433061,1.173019,0.066757,0.53978,-0.007812,-0.458984,0.916016,1.1200991741772854,-26.32222915743772,116.13129499267211,0.516917884349823,-0.12850762903690338,-0.18818660080432892,0.8251469135284424
658c7690-8968-4e6f-854c-4875192787e4,9ad6aa91-cc65-468c-868e-81e05a072707,1762167954789449061,1.235962,-0.053406,0.722885,-0.018066,-0.455566,0.924805,1.1209519232947465,-26.314218460921143,115.91802134054764,0.5184620022773743,-0.12882781028747559,-0.18788546323776245,0.8241962790489197
658c7690-8968-4e6f-854c-4875192787e4,9ad6aa91-cc65-468c-868e-81e05a072707,1762167954797465061,1.052856,0.068665,0.78392,-0.004883,-0.452637,0.92041,1.127313789828619,-26.30205211177691,115.72180928567776,0.5198948979377747,-0.129140242934227,-0.18754807114601135,0.8233211636543274
658c7690-8968-4e6f-854c-4875192787e4,9ad6aa91-cc65-468c-868e-81e05a072707,1762167954805481061,0.747681,0.1297,0.66185,-0.013672,-0.439941,0.927246,1.1236346086201414,-26.301204784159907,115.5605242522701,0.5210480093955994,-0.12937384843826294,-0.18737675249576569,0.8225942254066467
658c7690-8968-4e6f-854c-4875192787e4,9ad6aa91-cc65-468c-868e-81e05a072707,1762167954816116061,0.930786,-0.358582,0.356674,-0.02002,-0.463867,0.918945,1.1224369492903787,-26.297750329067153,115.46416890990412,0.5217409729957581,-0.1295071542263031,-0.18724849820137024,0.8221631050109863
658c7690-8968-4e6f-854c-4875192787e4,9ad6aa91-cc65-468c-868e-81e05a072707,1762167954826751061,0.62561,-0.297546,0.417709,-0.004395,-0.455566,0.908203,1.121695225591585,-26.299237807894293,115.27078819243746,0.5231249928474426,-0.12982438504695892,-0.18704375624656677,0.821279764175415
658c7690-8968-4e6f-854c-4875192787e4,9ad6aa91-cc65-468c-868e-81e05a072707,1762167954837386061,0.627518,-0.177383,0.478745,-0.01416,-0.451172,0.917969,1.1220382496220727,-26.297122283740404,115.06584071085513,0.5245956778526306,-0.13015154004096985,-0.18679450452327728,0.8203461170196533
658c7690-8968-4e6f-854c-4875192787e4,9ad6aa91-cc65-468c-868e-81e05a072707,1762167954845397061,0.137329,-0.053406,0.478745,-0.021484,-0.453613,0.922363,1.1203044733498784,-26.29804782454195,114.89262909230867,0.5258313417434692,-0.1304255723953247,-0.18661215901374817,0.8195525407791138
658c7690-8968-4e6f-854c-4875192787e4,9ad6aa91-cc65-468c-868e-81e05a072707,1762167954853408061,0.196457,-0.299454,0.356674,-0.018066,-0.446289,0.919922,1.123870846181619,-26.298883439254237,114.71907335919448,0.5270769596099854,-0.13073734939098358,-0.18640398979187012,0.818749725818634
658c7690-8968-4e6f-854c-4875192787e4,9ad6aa91-cc65-468c-868e-81e05a072707,1762167954861419061,0.320435,-0.358582,0.295639,-0.020508,-0.464355,0.918457,1.1247855727854756,-26.2965171144454,114.53425263254515,0.5284006595611572,-0.1310335099697113,-0.1861717253923416,0.817901611328125
658c7690-8968-4e6f-854c-4875192787e4,9ad6aa91-cc65-468c-868e-81e05a072707,1762167954869430061,-0.045776,0.007629,0.295639,-0.012695,-0.45166,0.918945,1.127298386394518,-26.300911730397655,114.31683193685602,0.5299512147903442,-0.13142460584640503,-0.18594257533550262,0.8168871402740479
658c7690-8968-4e6f-854c-4875192787e4,9ad6aa91-cc65-468c-868e-81e05a072707,1762167954880099061,0.013351,-0.116348,0.234604,-0.032227,-0.462402,0.914062,1.1298808194314187,-26.302349848802773,114.12390607316148,0.5313284993171692,-0.13176247477531433,-0.1857193410396576,0.8159883618354797
658c7690-8968-4e6f-854c-4875192787e4,9ad6aa91-cc65-468c-868e-81e05a072707,1762167954890768061,-0.228882,-0.236511,0.173569,-0.021973,-0.460938,0.930664,1.132494890604407,-26.302729772015834,113.97168716923822,0.5324158072471619,-0.13202941417694092,-0.18553471565246582,0.815278172492981
658c7690-8968-4e6f-854c-4875192787e4,9ad6aa91-cc65-468c-868e-81e05a072707,1762167954901437061,0.013351,0.005722,-0.131607,-0.012695,-0.459961,0.923828,1.131627415031697,-26.301443565876394,113.8008937210492,0.5336302518844604,-0.1322936862707138,-0.18533259630203247,0.8144869208335876
658c7690-8968-4e6f-854c-4875192787e4,9ad6aa91-cc65-468c-868e-81e05a072707,1762167954909433061,0.137329,-0.297546,0.234604,-0.024902,-0.459473,0.917969,1.1325054055134907,-26.298097011532956,113.49395192328373,0.5358148217201233,-0.13278032839298248,-0.18494965136051178,0.8130593299865723
658c7690-8968-4e6f-854c-4875192787e4,9ad6aa91-cc65-468c-868e-81e05a072707,1762167954917429061,0.137329,-0.053406,0.295639,-0.018066,-0.458984,0.926269,1.1319422596479987,-26.298396329585067,113.33534909138524,0.5369384288787842,-0.13303358852863312,-0.18477046489715576,0.8123170733451843
658c7690-8968-4e6f-854c-4875192787e4,9ad6aa91-cc65-468c-868e-81e05a072707,1762167954925425061,0.076294,-0.358582,0.234604,-0.041016,-0.457031,0.926758,1.1388293234740485,-26.300194018805776,113.14027877458592,0.5383297204971313,-0.13340508937835693,-0.18452414870262146,0.81139075756073
658c7690-8968-4e6f-854c-4875192787e4,9ad6aa91-cc65-468c-868e-81e05a072707,1762167954933421061,0.076294,-0.541687,0.356674,-0.026855,-0.450195,0.917969,1.143299924501831,-26.298065684171267,112.93280659539397,0.5398072600364685,-0.13376061618328094,-0.18424615263938904,0.8104131817817688
658c7690-8968-4e6f-854c-4875192787e4,9ad6aa91-cc65-468c-868e-81e05a072707,1762167954944087061,-0.228882,-0.236511,-0.009537,-0.015625,-0.449219,0.93457,1.1441160120311784,-26.29577211247462,112.73437625547031,0.5412134528160095,-0.13407446444034576,-0.1839941442012787,0.8094801902770996
658c7690-8968-4e6f-854c-4875192787e4,9ad6aa91-cc65-468c-868e-81e05a072707,1762167954954753061,-0.228882,-0.297546,0.112534,-0.012207,-0.458496,0.922852,1.143719522899192,-26.295370295848432,112.55219568699489,0.5424994826316833,-0.134362131357193,-0.1837797909975052,0.8086198568344116
658c7690-8968-4e6f-854c-4875192787e4,9ad6aa91-cc65-468c-868e-81e05a072707,1762167954965419061,-0.413895,-1.153946,0.112534,-0.019043,-0.45459,0.912109,1.145598615001819,-26.29480218870675,112.35682489190768,0.5438809394836426,-0.13468584418296814,-0.18353751301765442,0.8076924681663513
658c7690-8968-4e6f-854c-4875192787e4,9ad6aa91-cc65-468c-868e-81e05a072707,1762167954976071061,-0.534058,-1.213074,0.478745,-0.023438,-0.455566,0.932617,1.1446308932785456,-26.293490648959523,112.15920004959128,0.5452728867530823,-0.1349891573190689,-0.18330030143260956,0.8067566752433777
658c7690-8968-4e6f-854c-4875192787e4,9ad6aa91-cc65-468c-868e-81e05a072707,1762167954986725061,-0.167847,-1.213074,0.53978,-0.018555,-0.457031,0.929687,1.14353947060435,-26.293986017064572,112.04542596163017,0.5460713505744934,-0.135165736079216,-0.18317487835884094,0.8062154054641724
658c7690-8968-4e6f-854c-4875192787e4,9ad6aa91-cc65-468c-868e-81e05a072707,1762167954997379061,-0.045776,-0.846863,0.53978,-0.022461,-0.454102,0.925781,1.1430436429315585,-26.28978069866975,111.90578633397996,0.5470569729804993,-0.13536542654037476,-0.18298274278640747,0.8055570721626282
658c7690-8968-4e6f-854c-4875192787e4,9ad6aa91-cc65-468c-868e-81e05a072707,1762167955008056061,0.198364,-0.541687,0.53978,-0.011719,-0.446777,0.930664,1.1408618836691415,-26.28391572633848,111.57863313097764,0.5493572354316711,-0.13584406673908234,-0.18256472051143646,0.8040043711662292
658c7690-8968-4e6f-854c-4875192787e4,9ad6aa91-cc65-468c-868e-81e05a072707,1762167955018733061,0.013351,-0.53978,0.356674,-0.009277,-0.439453,0.924805,1.1371195259113032,-26.279630273780537,111.40316899631974,0.5505862236022949,-0.13607676327228546,-0.18234434723854065,0.8031739592552185
658c7690-8968-4e6f-854c-4875192787e4,9ad6aa91-cc65-468c-868e-81e05a072707,1762167955029410061,-0.167847,-0.419617,0.173569,-0.011719,-0.449219,0.926758,1.1332934218062798,-26.277648708657434,111.17184399050397,0.5522024631500244,-0.13640831410884857,-0.18207380175590515,0.8020687699317932
658c7690-8968-4e6f-854c-4875192787e4,9ad6aa91-cc65-468c-868e-81e05a072707,1762167955040073061,-0.230789,-0.177383,0.478745,-0.009277,-0.451172,0.922852,1.1311740648902098,-26.275672209518827,110.97833619743838,0.5535548329353333,-0.13669128715991974,-0.18183957040309906,0.8011409640312195
658c7690-8968-4e6f-854c-4875192787e4,9ad6aa91-cc65-468c-868e-81e05a072707,1762167955050735061,0.013351,-0.421524,0.417709,-0.014648,-0.455566,0.935547,1.1322216646859422,-26.27311561163469,110.79226385973602,0.5548593401908875,-0.13698138296604156,-0.1815943866968155,0.800244152545929
658c7690-8968-4e6f-854c-4875192787e4,9ad6aa91-cc65-468c-868e-81e05a072707,1762167955061397061,-0.230789,-0.665665,0.173569,-0.017578,-0.453613,0.911621,1.1300183859717265,-26.269810463803704,110.61632401257037,0.5560873746871948,-0.13722874224185944,-0.18137142062187195,0.7993994355201721
658c7690-8968-4e6f-854c-4875192787e4,9ad6aa91-cc65-468c-868e-81e05a072707,1762167955069395061,-0.106812,-0.419617,0.173569,-0.005371,-0.464355,0.918945,1.1238882020713943,-26.273765552763955,110.27354140049877,0.5584622621536255,-0.1377471387386322,-0.18101760745048523,0.7977331876754761
658c7690-8968-4e6f-854c-4875192787e4,9ad6aa91-cc65-468c-868e-81e05a072707,1762167955077396061,-0.411987,-0.541687,0.051498,-0.004883,-0.458984,0.925293,1.1219387399711829,-26.27290125470319,110.18995294285303,0.5590418577194214,-0.13786138594150543,-0.1809205561876297,0.7973294258117676
658c7690-8968-4e6f-854c-4875192787e4,9ad6aa91-cc65-468c-868e-81e05a072707,1762167955085397061,-0.106812,-0.602722,-0.009537,-0.017578,-0.457031,0.916504,1.1191375051517933,-26.27548991842756,110.07526632580877,0.5598323941230774,-0.13803549110889435,-0.1808142364025116,0.7967684864997864
658c7690-8968-4e6f-854c-4875192787e4,9ad6aa91-cc65-468c-868e-81e05a072707,1762167955093398061,-0.291824,-0.177383,-0.009537,-0.015137,-0.455078,0.931641,1.1187911717538848,-26.273361166265357,109.90184134087133,0.5610393285751343,-0.1382962167263031,-0.18059198558330536,0.7959243059158325
658c7690-8968-4e6f-854c-4875192787e4,9ad6aa91-cc65-468c-868e-81e05a072707,1762167955104176061,0.013351,0.005722,-0.253677,-0.014648,-0.464355,0.920898,1.118443803188434,-26.277124532231213,109.76963380677616,0.5619526505470276,-0.13852040469646454,-0.18046021461486816,0.7952706217765808
658c7690-8968-4e6f-854c-4875192787e4,9ad6aa91-cc65-468c-868e-81e05a072707,1762167955114954061,0.322342,0.005722,-0.253677,-0.013672,-0.458008,0.939453,1.1160415983011358,-26.27657950505822,109.64278774545949,0.5628294348716736,-0.13870076835155487,-0.1803147792816162,0.7946518659591675
658c7690-8968-4e6f-854c-4875192787e4,9ad6aa91-cc65-468c-868e-81e05a072707,1762167955125732061,0.627518,-0.177383,-0.131607,-0.007812,-0.456543,0.928223,1.1180678934075732,-26.274332941214272,109.46924223163862,0.5640378594398499,-0.13897672295570374,-0.18007892370224,0.7937999367713928
658c7690-8968-4e6f-854c-4875192787e4,9ad6aa91-cc65-468c-868e-81e05a072707,1762167955136287061,0.379562,-0.177383,-0.253677,-0.007324,-0.435059,0.920898,1.1177192423888076,-26.27519714787538,109.30035312323751,0.5652056932449341,-0.13924379646778107,-0.17988161742687225,0.7929667830467224
658c7690-8968-4e6f-854c-4875192787e4,9ad6aa91-cc65-468c-868e-81e05a072707,1762167955146841061,0.501633,0.066757,-0.314713,-0.024414,-0.447266,0.923828,1.114432949886206,-26.27120486684338,109.14685790427988,0.5662665367126465,-0.1394423097372055,-0.17968349158763885,0.7922195792198181
658c7690-8968-4e6f-854c-4875192787e4,9ad6aa91-cc65-468c-868e-81e05a072707,1762167955157395061,0.562668,-0.177383,-0.009537,-0.022949,-0.455078,0.925781,1.1153330799508534,-26.270137385730525,109.00882803938767,0.5672229528427124,-0.13965961337089539,-0.17950354516506195,0.7915375828742981
658c7690-8968-4e6f-854c-4875192787e4,9ad6aa91-cc65-468c-868e-81e05a072707,1762167955165426061,0.686646,-0.724792,0.112534,-0.018555,-0.457031,0.92334,1.1188720814389803,-26.268460818813523,108.67626861183027,0.5695250630378723,-0.1401960849761963,-0.17906829714775085,0.7898865342140198
658c7690-8968-4e6f-854c-4875192787e4,9ad6aa91-cc65-468c-868e-81e05a072707,1762167955173456061,0.808716,-0.785828,0.234604,-0.032715,-0.447754,0.930176,1.1231967572312749,-26.26588825531262,108.59786689957288,0.5700749158859253,-0.14033564925193787,-0.1789330393075943,0.7894956469535828
658c7690-8968-4e6f-854c-4875192787e4,9ad6aa91-cc65-468c-868e-81e05a072707,1762167955181486061,0.442505,-1.029968,0.417709,-0.037598,-0.453125,0.910644,1.1250734218066791,-26.263998326086202,108.53647097908706,0.5705028176307678,-0.14043506979942322,-0.1788354218006134,0.789190948009491
658c7690-8968-4e6f-854c-4875192787e4,9ad6aa91-cc65-468c-868e-81e05a072707,1762167955189516061,0.808716,-1.213074,0.66185,-0.005859,-0.445801,0.929687,1.1165006741116927,-26.25475447952299,108.40884981410645,0.5713781118392944,-0.1405293494462967,-0.17865782976150513,0.7885809540748596
658c7690-8968-4e6f-854c-4875192787e4,9ad6aa91-cc65-468c-868e-81e05a072707,1762167955200153061,0.320435,-1.213074,1.211166,-0.022949,-0.462891,0.934082,1.1133500535139524,-26.25199385362954,108.27929505184439,0.5722674131393433,-0.14069588482379913,-0.17849552631378174,0.7879428863525391
658c7690-8968-4e6f-854c-4875192787e4,9ad6aa91-cc65-468c-868e-81e05a072707,1762167955210790061,0.564575,-1.029968,1.089096,-0.016602,-0.45752,0.9375,1.108755668773923,-26.24182279815322,108.15155019768409,0.5731494426727295,-0.14081266522407532,-0.1782914400100708,0.7873268723487854
658c7690-8968-4e6f-854c-4875192787e4,9ad6aa91-cc65-468c-868e-81e05a072707,1762167955221427061,0.564575,-1.029968,1.455307,-0.024902,-0.456055,0.925781,1.1055728217712903,-26.23809587017854,107.97462268869127,0.5743635296821594,-0.1410473734140396,-0.17806410789489746,0.7864510416984558
658c7690-8968-4e6f-854c-4875192787e4,9ad6aa91-cc65-468c-868e-81e05a072707,1762167955229411061,0.686646,-0.907898,1.577377,-0.012207,-0.445801,0.92334,1.1041337793472548,-26.233493532387612,107.79443453104491,0.5756022930145264,-0.14129434525966644,-0.1778176724910736,0.7855563163757324
658c7690-8968-4e6f-854c-4875192787e4,9ad6aa91-cc65-468c-868e-81e05a072707,1762167955237395061,0.686646,-1.029968,1.760483,-0.026367,-0.43457,0.92334,1.1062996309530297,-26.22484341505271,107.62086391670219,0.5768043994903564,-0.14153507351875305,-0.1775331199169159,0.7846951484680176
658c7690-8968-4e6f-854c-4875192787e4,9ad6aa91-cc65-468c-868e-81e05a072707,1762167955245379061,0.198364,-0.907898,1.943588,-0.019531,-0.448242,0.927246,1.1059666993366721,-26.21660755769084,107.63892966299605,0.5766892433166504,-0.14146360754966736,-0.17750051617622375,0.7848000526428223
658c7690-8968-4e6f-854c-4875192787e4,9ad6aa91-cc65-468c-868e-81e05a072707,1762167955253363061,0.379562,-0.97084,1.943588,-0.003906,-0.455566,0.919922,1.1071933665715068,-26.212496027597595,107.55278020484558,0.5772855281829834,-0.1415848284959793,-0.1773597002029419,0.7843714952468872
658c7690-8968-4e6f-854c-4875192787e4,9ad6aa91-cc65-468c-868e-81e05a072707,1762167955264049061,0.442505,-0.663757,2.126694,-0.012695,-0.458496,0.932129,1.1041586751879318,-26.20946941641684,107.41439764158106,0.5782309770584106,-0.14176297187805176,-0.177183136343956,0.7836825251579285
658c7690-8968-4e6f-854c-4875192787e4,9ad6aa91-cc65-468c-868e-81e05a072707,1762167955274735061,0.62561,-0.236511,2.126694,-0.009277,-0.458496,0.929199,1.104025167933269,-26.20431252526052,107.30650852394015,0.5789740681648254,-0.14190292358398438,-0.17701490223407745,0.7831463813781738
658c7690-8968-4e6f-854c-4875192787e4,9ad6aa91-cc65-468c-868e-81e05a072707,1762167955285421061,0.442505,0.190735,1.882553,0.004395,-0.469727,0.921875,1.108974941517377,-26.199016246535013,107.25226446015247,0.5793582201004028,-0.14199389517307281,-0.17688637971878052,0.7828748226165771
658c7690-8968-4e6f-854c-4875192787e4,9ad6aa91-cc65-468c-868e-81e05a072707,1762167955296075061,-0.045776,0.312805,1.699448,0.001953,-0.449219,0.930664,1.1083465553312142,-26.196953234336533,106.97266516795784,0.5812680125236511,-0.14241039752960205,-0.1765284687280655,0.7814629673957825
658c7690-8968-4e6f-854c-4875192787e4,9ad6aa91-cc65-468c-868e-81e05a072707,1762167955306731061,0.076294,0.556946,1.333237,-0.003906,-0.467773,0.927246,1.1137815548167131,-26.19747649360661,106.80970014555493,0.5823865532875061,-0.14270097017288208,-0.1763017177581787,0.7806279063224792
658c7690-8968-4e6f-854c-4875192787e4,9ad6aa91-cc65-468c-868e-81e05a072707,1762167955317387061,0.320435,0.679016,1.272202,-0.006348,-0.46582,0.927734,1.115177078921518,-26.197645445691,106.65850878370729,0.5834179520606995,-0.14294379949569702,-0.17610733211040497,0.7798568606376648
658c7690-8968-4e6f-854c-4875192787e4,9ad6aa91-cc65-468c-868e-81e05a072707,1762167955328095061,1.050949,0.799179,0.722885,-0.022949,-0.475098,0.950195,1.1175840555389018,-26.19172434245843,106.50885192127157,0.5844462513923645,-0.14316001534461975,-0.17586782574653625,0.7791009545326233
658c7690-8968-4e6f-854c-4875192787e4,9ad6aa91-cc65-468c-868e-81e05a072707,1762167955338805061,1.541138,0.740051,0.722885,-0.03125,-0.471191,0.945801,1.1284182356081616,-26.181583609865484,106.38124968788135,0.5853413939476013,-0.143377885222435,-0.1755838394165039,0.7784526348114014
658c7690-8968-4e6f-854c-4875192787e4,9ad6aa91-cc65-468c-868e-81e05a072707,1762167955349515061,1.663208,0.740051,1.028061,-0.020996,-0.478027,0.941406,1.1411906370602292,-26.169633304480328,106.29219400310485,0.5859791040420532,-0.14354027807712555,-0.17532563209533691,0.7780010104179382
658c7690-8968-4e6f-854c-4875192787e4,9ad6aa91-cc65-468c-868e-81e05a072707,1762167955357530061,1.905441,0.799179,0.905991,-0.005371,-0.462402,0.944336,1.1620557994745853,-26.136073925771147,106.13484184076877,0.5871162414550781,-0.14375153183937073,-0.1747930496931076,0.7772241830825806
658c7690-8968-4e6f-854c-4875192787e4,9ad6aa91-cc65-468c-868e-81e05a072707,1762167955365545061,1.907349,0.862122,1.272202,-0.026855,-0.45166,0.925781,1.1780390047472957,-26.1153653172808,106.02039578229852,0.5879396796226501,-0.14392879605293274,-0.17442654073238373,0.7766509652137756
658c7690-8968-4e6f-854c-4875192787e4,9ad6aa91-cc65-468c-868e-81e05a072707,1762167955373560061,2.515793,0.677109,1.699448,-0.029785,-0.458008,0.937012,1.1937357559791306,-26.088682212269543,105.92490331100491,0.5886403322219849,-0.14404422044754028,-0.17404451966285706,0.7761844396591187
658c7690-8968-4e6f-854c-4875192787e4,9ad6aa91-cc65-468c-868e-81e05a072707,1762167955381575061,2.578735,0.495911,2.004623,-0.023438,-0.445312,0.949707,1.2153316602811164,-26.059504458747643,105.79888030658542,0.5895588994026184,-0.14423255622386932,-0.1735766977071762,0.7755568027496338
658c7690-8968-4e6f-854c-4875192787e4,9ad6aa91-cc65-468c-868e-81e05a072707,1762167955392178061,2.761841,0.679016,2.065659,-0.03125,-0.45459,0.927246,1.2372230346608182,-26.03211531696488,105.66823509530904,0.590506374835968,-0.14443817734718323,-0.17311343550682068,0.7749009728431702
658c7690-8968-4e6f-854c-4875192787e4,9ad6aa91-cc65-468c-868e-81e05a072707,1762167955402781061,2.515793,0.799179,2.187729,-0.035645,-0.437012,0.927734,1.262103631709358,-26.008531046274918,105.54462138333004,0.5914057493209839,-0.14467203617095947,-0.1726691573858261,0.7742703557014465
658c7690-8968-4e6f-854c-4875192787e4,9ad6aa91-cc65-468c-868e-81e05a072707,1762167955413384061,2.946854,0.799179,2.370834,-0.029785,-0.439941,0.929199,1.2801153062300348,-25.981974255619942,105.43841600939795,0.5921797752380371,-0.1448173075914383,-0.17226190865039825,0.773742139339447
658c7690-8968-4e6f-854c-4875192787e4,9ad6aa91-cc65-468c-868e-81e05a072707,1762167955424055061,2.456665,0.556946,2.43187,-0.035645,-0.44043,0.946289,1.302977483622676,-25.9541007861001,105.36295812297652,0.5927544832229614,-0.14494182169437408,-0.17185939848423004,0.7733681201934814
658c7690-8968-4e6f-854c-4875192787e4,9ad6aa91-cc65-468c-868e-81e05a072707,1762167955434727061,2.5177,0.068665,2.248764,-0.026855,-0.425293,0.94043,1.3187879938065576,-25.926715717013387,105.2440160122292,0.5936110019683838,-0.14508585631847382,-0.17144154012203217,0.77277672290802
658c7690-8968-4e6f-854c-4875192787e4,9ad6aa91-cc65-468c-868e-81e05a072707,1762167955445399061,2.761841,-0.541687,1.882553,-0.029297,-0.432129,0.944824,1.3318195459942763,-25.89282204236638,105.15243225496039,0.5942855477333069,-0.14513611793518066,-0.17102858424186707,0.7723401784896851
658c7690-8968-4e6f-854c-4875192787e4,9ad6aa91-cc65-468c-868e-81e05a072707,1762167955453388061,2.820969,-0.844955,1.638412,-0.020996,-0.427246,0.921875,1.3340347526576872,-25.82498589718943,104.95769789642875,0.5956758260726929,-0.14509129524230957,-0.17031165957450867,0.7714354991912842
658c7690-8968-4e6f-854c-4875192787e4,9ad6aa91-cc65-468c-868e-81e05a072707,1762167955461376061,2.822876,-1.029968,0.967026,-0.010742,-0.439941,0.916504,1.3268186959688,-25.796690752817142,104.79523585144901,0.5967896580696106,-0.1451377421617508,-0.16995230317115784,0.7706447243690491
658c7690-8968-4e6f-854c-4875192787e4,9ad6aa91-cc65-468c-868e-81e05a072707,1762167955469364061,2.820969,-1.092911,0.356674,-0.030762,-0.418945,0.916016,1.3200996018006965,-25.763575633981077,104.68384424274419,0.5975653529167175,-0.14508621394634247,-0.16962271928787231,0.7701258063316345
658c7690-8968-4e6f-854c-4875192787e4,9ad6aa91-cc65-468c-868e-81e05a072707,1762167955477352061,2.578735,-1.51825,-0.070572,-0.022949,-0.42041,0.91748,1.3082064966672462,-25.734763777577424,104.55544557362035,0.5984423756599426,-0.1450468897819519,-0.16932789981365204,0.7695167660713196
658c7690-8968-4e6f-854c-4875192787e4,9ad6aa91-cc65-468c-868e-81e05a072707,1762167955488042061,2.090454,-1.64032,-0.558853,-0.034668,-0.430664,0.928711,1.2937458160529443,-25.7104147635338,104.39644543877894,0.5995153188705444,-0.14505814015865326,-0.16903813183307648,0.7687428593635559
658c7690-8968-4e6f-854c-4875192787e4,9ad6aa91-cc65-468c-868e-81e05a072707,1762167955498732061,2.149582,-2.004623,-0.680923,-0.029297,-0.423828,0.924316,1.2782651533481428,-25.68644882686377,104.23859356666624,0.6005776524543762,-0.14506232738494873,-0.16875803470611572,0.7679740190505981
658c7690-8968-4e6f-854c-4875192787e4,9ad6aa91-cc65-468c-868e-81e05a072707,1762167955509422061,1.050949,-2.130508,-0.864029,-0.026855,-0.427734,0.924316,1.2619955486340975,-25.669251979024043,104.09770279457271,0.6015167236328125,-0.1450710892677307,-0.16854935884475708,0.7672829031944275
658c7690-8968-4e6f-854c-4875192787e4,9ad6aa91-cc65-468c-868e-81e05a072707,1762167955517435061,0.38147,-2.372742,-0.131607,-0.040039,-0.418945,0.936035,1.2471668963111595,-25.65979876567278,103.98255776900774,0.6022762060165405,-0.14509180188179016,-0.16841794550418854,0.7667118310928345
658c7690-8968-4e6f-854c-4875192787e4,9ad6aa91-cc65-468c-868e-81e05a072707,1762167955525447061,0.259399,-2.433777,0.417709,-0.047852,-0.430664,0.924316,1.2355302246913107,-25.6472157409998,103.83713751332485,0.603245735168457,-0.14516179263591766,-0.16821050643920898,0.7659816145896912
658c7690-8968-4e6f-854c-4875192787e4,9ad6aa91-cc65-468c-868e-81e05a072707,1762167955533459061,0.196457,-2.492905,1.089096,-0.041504,-0.430176,0.931152,1.2272278116576665,-25.640841600473138,103.69282567800694,0.6042048931121826,-0.14528466761112213,-0.16802860796451569,0.7652419209480286
658c7690-8968-4e6f-854c-4875192787e4,9ad6aa91-cc65-468c-868e-81e05a072707,1762167955541471061,-0.350952,-2.433777,1.821518,-0.024902,-0.434082,0.926758,1.2207631334087037,-25.637094698780718,103.6426187518126,0.6045348644256592,-0.14529548585414886,-0.16797393560409546,0.7649911642074585
658c7690-8968-4e6f-854c-4875192787e4,9ad6aa91-cc65-468c-868e-81e05a072707,1762167955552098061,-0.473022,-2.372742,2.126694,-0.046875,-0.43457,0.932617,1.2133869453743036,-25.63608187774981,103.57346755321882,0.6049867272377014,-0.14534229040145874,-0.1679183840751648,0.7646371722221375
658c7690-8968-4e6f-854c-4875192787e4,9ad6aa91-cc65-468c-868e-81e05a072707,1762167955562725061,-0.656128,-2.433777,2.859116,-0.026855,-0.424805,0.925293,1.2134835936558601,-25.63379215788025,103.4605569579765,0.6057425737380981,-0.14549627900123596,-0.1677592545747757,0.7640442252159119
658c7690-8968-4e6f-854c-4875192787e4,9ad6aa91-cc65-468c-868e-81e05a072707,1762167955573352061,-0.839233,-2.494812,3.408432,-0.041992,-0.430176,0.92334,1.2086363508567293,-25.6343059153139,103.35428348760938,0.6064432263374329,-0.14562220871448517,-0.16765333712100983,0.7634874582290649
658c7690-8968-4e6f-854c-4875192787e4,9ad6aa91-cc65-468c-868e-81e05a072707,1762167955584035061,-0.963211,-2.61879,3.835678,-0.030762,-0.445801,0.929687,1.2088699703377044,-25.640586537741594,103.17112620737177,0.6076560020446777,-0.1459246575832367,-0.1674610823392868,0.7625069618225098
658c7690-8968-4e6f-854c-4875192787e4,9ad6aa91-cc65-468c-868e-81e05a072707,1762167955594716061,-0.961304,-2.861023,4.44603,-0.034668,-0.433594,0.928223,1.2064665297977677,-25.647101430853215,103.07991102894434,0.6082518696784973,-0.14607630670070648,-0.16740112006664276,0.7620158195495605
658c7690-8968-4e6f-854c-4875192787e4,9ad6aa91-cc65-468c-868e-81e05a072707,1762167955605397061,-1.266479,-3.166199,4.69017,-0.038574,-0.448242,0.928223,1.203490775052536,-25.656989336729673,102.9911514984674,0.6088263392448425,-0.14623835682868958,-0.16736969351768494,0.7615327835083008
658c7690-8968-4e6f-854c-4875192787e4,9ad6aa91-cc65-468c-868e-81e05a072707,1762167955613403061,-1.63269,-3.227234,4.69017,-0.015625,-0.446777,0.929687,1.192082236377095,-25.67128749217225,102.93442520390738,0.6091703176498413,-0.14632096886634827,-0.16745327413082123,0.7612233757972717
658c7690-8968-4e6f-854c-4875192787e4,9ad6aa91-cc65-468c-868e-81e05a072707,1762167955621409061,-1.756668,-3.595352,4.873276,-0.016113,-0.446777,0.930664,1.1816410862462972,-25.68462073736407,102.87339833114126,0.6095451712608337,-0.14641129970550537,-0.1675197333097458,0.7608912587165833
658c7690-8968-4e6f-854c-4875192787e4,9ad6aa91-cc65-468c-868e-81e05a072707,1762167955629415061,-1.51062,-3.715515,4.751205,-0.012207,-0.442871,0.932129,1.1650603253877763,-25.697765457544627,102.79185374895768,0.6100472211837769,-0.14649000763893127,-0.16759133338928223,0.7604578733444214
658c7690-8968-4e6f-854c-4875192787e4,9ad6aa91-cc65-468c-868e-81e05a072707,1762167955637421061,-1.451492,-3.778458,4.44603,-0.015625,-0.449707,0.937988,1.1468966593965566,-25.710921724846827,102.78330861740271,0.610062301158905,-0.14645162224769592,-0.16776473820209503,0.7604148983955383
658c7690-8968-4e6f-854c-4875192787e4,9ad6aa91-cc65-468c-868e-81e05a072707,1762167955645461061,-1.63269,-3.715515,4.384995,-0.010742,-0.455078,0.928711,1.1242193930509317,-25.728523214005065,102.74433086323508,0.6102675199508667,-0.1464514434337616,-0.16795288026332855,0.7602087259292603
658c7690-8968-4e6f-854c-4875192787e4,9ad6aa91-cc65-468c-868e-81e05a072707,1762167955653501061,-1.022339,-3.288269,3.835678,0.0,-0.44873,0.925781,1.1028579059657482,-25.73388779086128,102.64764501244555,0.6108712553977966,-0.14647991955280304,-0.16797882318496704,0.7597124576568604
658c7690-8968-4e6f-854c-4875192787e4,9ad6aa91-cc65-468c-868e-81e05a072707,1762167955661541061,-0.106812,-3.166199,3.408432,0.006348,-0.455566,0.938477,1.0788587763691069,-25.73571954442694,102.53963352880216,0.6115497946739197,-0.14648891985416412,-0.16798093914985657,0.7591641545295715
658c7690-8968-4e6f-854c-4875192787e4,9ad6aa91-cc65-468c-868e-81e05a072707,1762167955669581061,-0.106812,-3.166199,2.614975,0.007812,-0.458496,0.935059,1.0515874699308487,-25.737923984590967,102.42206565345947,0.612285852432251,-0.1464923918247223,-0.16799092292785645,0.7585676908493042
658c7690-8968-4e6f-854c-4875192787e4,9ad6aa91-cc65-468c-868e-81e05a072707,1762167955680195061,0.076294,-2.677917,1.577377,0.012695,-0.477051,0.924805,1.0217475137199488,-25.743531157660414,102.27846200652515,0.6131857633590698,-0.14653530716896057,-0.1680040955543518,0.7578292489051819
658c7690-8968-4e6f-854c-4875192787e4,9ad6aa91-cc65-468c-868e-81e05a072707,1762167955690809061,0.684738,-2.130508,0.78392,-0.007324,-0.466797,0.950195,0.9990176074356827,-25.736756515203446,102.13988067690185,0.6140763759613037,-0.14655207097530365,-0.16790366172790527,0.7571268081665039
658c7690-8968-4e6f-854c-4875192787e4,9ad6aa91-cc65-468c-868e-81e05a072707,1762167955701423061,1.785278,-1.579285,-0.070572,0.009766,-0.463379,0.94043,0.9736536762013476,-25.724991931228057,102.00851688869072,0.6149204969406128,-0.1465141922235489,-0.16779375076293945,0.7564731240272522
658c7690-8968-4e6f-854c-4875192787e4,9ad6aa91-cc65-468c-868e-81e05a072707,1762167955709417061,1.907349,-1.274109,-0.741959,0.007324,-0.46582,0.932129,0.9504966979572724,-25.71286766660016,101.96985518223403,0.6151559352874756,-0.14635318517684937,-0.16778835654258728,0.7563140392303467
658c7690-8968-4e6f-854c-4875192787e4,9ad6aa91-cc65-468c-868e-81e05a072707,1762167955717411061,2.149582,-1.153946,-1.23024,0.00293,-0.456055,0.930664,0.9287338437526347,-25.695687074104402,101.89413394858538,0.6156437993049622,-0.1462285816669464,-0.1676948517560959,0.7559618353843689
658c7690-8968-4e6f-854c-4875192787e4,9ad6aa91-cc65-468c-868e-81e05a072707,1762167955725405061,2.5177,-0.602722,-1.413345,0.000977,-0.466797,0.94043,0.9054783164360414,-25.679704112800387,101.7501106939514,0.6165781617164612,-0.14620035886764526,-0.16753041744232178,0.755241870880127
658c7690-8968-4e6f-854c-4875192787e4,9ad6aa91-cc65-468c-868e-81e05a072707,1762167955733399061,2.456665,-0.907898,-2.145767,-0.009277,-0.453125,0.932129,0.8892261022737286,-25.659145501499765,101.64813480892275,0.617250382900238,-0.14613208174705505,-0.16735199093818665,0.7547454237937927
658c7690-8968-4e6f-854c-4875192787e4,9ad6aa91-cc65-468c-868e-81e05a072707,1762167955744148061,2.883911,-0.724792,-1.779556,0.008301,-0.456055,0.938965,0.8719683862775904,-25.634907604417915,101.55188621513102,0.6178873777389526,-0.14602887630462646,-0.16716225445270538,0.7542860507965088
658c7690-8968-4e6f-854c-4875192787e4,9ad6aa91-cc65-468c-868e-81e05a072707,1762167955754897061,3.004074,-0.787735,-1.718521,-0.010254,-0.433105,0.932129,0.8599992849963394,-25.60316222330527,101.4181275197951,0.6187872886657715,-0.14597448706626892,-0.16684696078300476,0.7536283731460571
658c7690-8968-4e6f-854c-4875192787e4,9ad6aa91-cc65-468c-868e-81e05a072707,1762167955765646061,3.005981,-0.541687,-1.840591,-0.01709,-0.439941,0.921387,0.8484198683137189,-25.573565335567803,101.27548996943663,0.6197428703308105,-0.14594656229019165,-0.1665327548980713,0.7529177665710449
658c7690-8968-4e6f-854c-4875192787e4,9ad6aa91-cc65-468c-868e-81e05a072707,1762167955776242061,2.883911,-0.907898,-1.413345,-0.003906,-0.416016,0.916992,0.8350770938637274,-25.542757773197636,101.1286872738713,0.6207238435745239,-0.145906001329422,-0.16621515154838562,0.7521873712539673
658c7690-8968-4e6f-854c-4875192787e4,9ad6aa91-cc65-468c-868e-81e05a072707,1762167955786838061,2.637863,-1.028061,-0.986099,-0.014648,-0.423828,0.934082,0.8205730721355065,-25.510212529939736,100.99191715799253,0.6216385364532471,-0.1458333283662796,-0.16590556502342224,0.7515140771865845
658c7690-8968-4e6f-854c-4875192787e4,9ad6aa91-cc65-468c-868e-81e05a072707,1762167955797434061,2.637863,-1.153946,-0.864029,-0.01123,-0.422363,0.925781,0.809469884869289,-25.481161739550213,100.86299725708243,0.6225018501281738,-0.14578993618488312,-0.16561084985733032,0.7508726119995117
658c7690-8968-4e6f-854c-4875192787e4,9ad6aa91-cc65-468c-868e-81e05a072707,1762167955805475061,2.761841,-1.274109,-1.10817,-0.016602,-0.422852,0.929687,0.7840666611893214,-25.422577204803172,100.68694700791791,0.6236872673034668,-0.14556029438972473,-0.16514050960540771,0.7500365972518921
658c7690-8968-4e6f-854c-4875192787e4,9ad6aa91-cc65-468c-868e-81e05a072707,1762167955813516061,2.578735,-0.907898,-1.23024,-0.025391,-0.435059,0.927734,0.7742488638420008,-25.39477221722981,100.64179499723063,0.6240014433860779,-0.14541025459766388,-0.16495420038700104,0.7498453855514526
658c7690-8968-4e6f-854c-4875192787e4,9ad6aa91-cc65-468c-868e-81e05a072707,1762167955821557061,2.332687,-0.665665,-1.291275,-0.022949,-0.421875,0.933594,0.7646659331675923,-25.369426425918242,100.488870616999,0.6250177621841431,-0.14542989432811737,-0.164646178483963,0.7490623593330383
658c7690-8968-4e6f-854c-4875192787e4,9ad6aa91-cc65-468c-868e-81e05a072707,1762167955829598061,2.090454,-1.274109,-0.986099,-0.03125,-0.430664,0.929687,0.7552188840171445,-25.34877599219377,100.34369879730109,0.625977098941803,-0.14546425640583038,-0.16437822580337524,0.7483131289482117
658c7690-8968-4e6f-854c-4875192787e4,9ad6aa91-cc65-468c-868e-81e05a072707,1762167955839164061,2.212524,-1.029968,-1.10817,-0.019043,-0.419434,0.921875,0.7451827028130987,-25.319949929301746,100.22410993098491,0.6267774701118469,-0.1454131305217743,-0.16409267485141754,0.7477155327796936
658c7690-8968-4e6f-854c-4875192787e4,9ad6aa91-cc65-468c-868e-81e05a072707,1762167955848730061,1.419067,-1.335144,-0.925064,-0.014648,-0.409668,0.921387,0.7318288820193645,-25.300114015862697,100.08354673047556,0.6276986002922058,-0.14541897177696228,-0.16385771334171295,0.7469928860664368
658c7690-8968-4e6f-854c-4875192787e4,9ad6aa91-cc65-468c-868e-81e05a072707,1762167955858296061,1.235962,-1.579285,-0.436783,-0.01416,-0.416992,0.92041,0.7218678805502278,-25.282175762834846,99.95330421660988,0.6285542845726013,-0.1454421877861023,-0.16362985968589783,0.7463184595108032
658c7690-8968-4e6f-854c-4875192787e4,9ad6aa91-cc65-468c-868e-81e05a072707,1762167955867862061,0.869751,-1.396179,-0.436783,-0.018555,-0.416992,0.931152,0.7076929172167655,-25.264287193181787,99.83671019573109,0.6293143630027771,-0.1454184502363205,-0.1634429544210434,0.7457232475280762
658c7690-8968-4e6f-854c-4875192787e4,9ad6aa91-cc65-468c-868e-81e05a072707,1762167955877428061,0.808716,-1.457214,-0.558853,-0.005859,-0.420898,0.929199,0.6946306335279864,-25.24927065397204,99.76163321312025,0.6298020482063293,-0.14535827934741974,-0.16332153975963593,0.7453497648239136
658c7690-8968-4e6f-854c-4875192787e4,9ad6aa91-cc65-468c-868e-81e05a072707,1762167955887025061,-0.165939,-1.153946,-0.131607,-0.007812,-0.416504,0.916504,0.6855676848922385,-25.234150144885433,99.69173594782859,0.6302616596221924,-0.14531604945659637,-0.16318416595458984,0.7449995279312134
658c7690-8968-4e6f-854c-4875192787e4,9ad6aa91-cc65-468c-868e-81e05a072707,1762167955896626061,-0.411987,-0.724792,-0.009537,-0.009766,-0.411621,0.915527,0.6888567998323314,-25.22707352378837,99.56385472443874,0.6311057806015015,-0.14548058807849884,-0.16295771300792694,0.7443020343780518
658c7690-8968-4e6f-854c-4875192787e4,9ad6aa91-cc65-468c-868e-81e05a072707,1762167955906227061,-0.47493,-1.276016,-0.436783,0.00293,-0.425293,0.917969,0.6829242966273813,-25.222214006658664,99.47025545464314,0.6317108869552612,-0.14554843306541443,-0.16283991932868958,0.7438010573387146
658c7690-8968-4e6f-854c-4875192787e4,9ad6aa91-cc65-468c-868e-81e05a072707,1762167955915828061,-0.963211,-1.092911,-0.253677,-0.001465,-0.419434,0.921387,0.6707614118470068,-25.217648881186708,99.4351398511501,0.631926953792572,-0.14549429714679718,-0.16283269226551056,0.7436296939849854
658c7690-8968-4e6f-854c-4875192787e4,9ad6aa91-cc65-468c-868e-81e05a072707,1762167955925429061,-1.327515,-0.907898,-0.131607,0.00293,-0.407227,0.91748,0.6623401515654003,-25.215891059561024,99.32877920080615,0.6326070427894592,-0.14558109641075134,-0.16273264586925507,0.7430561184883118
658c7690-8968-4e6f-854c-4875192787e4,9ad6aa91-cc65-468c-868e-81e05a072707,1762167955933426061,-2.059937,-0.785828,-0.253677,-0.011719,-0.423828,0.922852,0.6501319196520955,-25.22114465964766,99.2226960249067,0.6332710385322571,-0.14568153023719788,-0.1626993864774704,0.7424778938293457
658c7690-8968-4e6f-854c-4875192787e4,9ad6aa91-cc65-468c-868e-81e05a072707,1762167955941423061,-2.428055,-0.97084,-0.436783,-0.027832,-0.429199,0.92041,0.6382760690674755,-25.233958499205873,99.13243835508813,0.6338234543800354,-0.1458035409450531,-0.1627333164215088,0.741974949836731
658c7690-8968-4e6f-854c-4875192787e4,9ad6aa91-cc65-468c-868e-81e05a072707,1762167955949420061,-2.670288,-0.480652,-0.436783,-0.003418,-0.42041,0.92041,0.6315139558972969,-25.252521272207552,99.00229769108395,0.6346337795257568,-0.14604702591896057,-0.16272540390491486,0.7412357926368713
658c7690-8968-4e6f-854c-4875192787e4,9ad6aa91-cc65-468c-868e-81e05a072707,1762167955957417061,-3.221512,-0.665665,-0.680923,-0.010742,-0.43457,0.919922,0.6217885361537634,-25.27167916770879,98.86503896519424,0.6354842782020569,-0.14628492295742035,-0.16272833943367004,0.7404592037200928
658c7690-8968-4e6f-854c-4875192787e4,9ad6aa91-cc65-468c-868e-81e05a072707,1762167955967020061,-3.341675,-0.419617,-0.802994,-0.009766,-0.425293,0.917969,0.6059027803938154,-25.326503311230795,98.64883945342658,0.6367912292480469,-0.14679303765296936,-0.16289474070072174,0.7391981482505798
658c7690-8968-4e6f-854c-4875192787e4,9ad6aa91-cc65-468c-868e-81e05a072707,1762167955976622061,-3.767014,-0.97084,-1.23024,-0.007812,-0.415527,0.928223,0.5942091744464251,-25.352442544484298,98.58020089725127,0.6371857523918152,-0.14695903658866882,-0.16303938627243042,0.7387931942939758
658c7690-8968-4e6f-854c-4875192787e4,9ad6aa91-cc65-468c-868e-81e05a072707,1762167955986224061,-3.952026,-0.236511,-1.535416,0.000977,-0.441406,0.925781,0.5807038722824225,-25.388209863455423,98.42938740370667,0.6380947232246399,-0.14728516340255737,-0.1631518304347992,0.7379183769226074
658c7690-8968-4e6f-854c-4875192787e4,9ad6aa91-cc65-468c-868e-81e05a072707,1762167955995826061,-4.076004,-0.356674,-1.962662,-0.007324,-0.42627,0.919434,0.5696628001377694,-25.421133815267087,98.30103553971692,0.6388648748397827,-0.1475798636674881,-0.1632605344057083,0.7371687293052673
658c7690-8968-4e6f-854c-4875192787e4,9ad6aa91-cc65-468c-868e-81e05a072707,1762167956005428061,-4.38118,0.005722,-2.145767,-0.006348,-0.44043,0.928223,0.5594038667103488,-25.460926395543584,98.21888242064685,0.6393297910690308,-0.14785237610340118,-0.16346824169158936,0.7366648316383362
658c7690-8968-4e6f-854c-4875192787e4,9ad6aa91-cc65-468c-868e-81e05a072707,1762167956015027061,-4.928589,0.1297,-2.573013,-0.012695,-0.442871,0.926758,0.5498483653373617,-25.50640697541825,98.11539253000196,0.6399252414703369,-0.1481919139623642,-0.16368070244789124,0.7360321879386902
658c7690-8968-4e6f-854c-4875192787e4,9ad6aa91-cc65-468c-868e-81e05a072707,1762167956024625061,-5.111694,-0.114441,-2.695084,-0.013672,-0.455566,0.924316,0.5400648189696108,-25.552285986204648,98.00804170961595,0.6405438780784607,-0.1485382318496704,-0.1638914793729782,0.7353770732879639
658c7690-8968-4e6f-854c-4875192787e4,9ad6aa91-cc65-468c-868e-81e05a072707,1762167956034223061,-5.357742,0.005722,-2.511978,-0.018555,-0.455078,0.931152,0.5304788663260208,-25.60190680317777,97.87938281131588,0.6412939429283142,-0.14893773198127747,-0.16409695148468018,0.734596312046051
658c7690-8968-4e6f-854c-4875192787e4,9ad6aa91-cc65-468c-868e-81e05a072707,1762167956043821061,-4.989624,-0.297546,-3.061295,-0.028809,-0.45166,0.938477,0.5239405720611056,-25.65121258019115,97.75113340591167,0.6420450210571289,-0.14935502409934998,-0.1642831265926361,0.7338135242462158
658c7690-8968-4e6f-854c-4875192787e4,9ad6aa91-cc65-468c-868e-81e05a072707,1762167956053419061,-4.623413,-0.236511,-2.756119,-0.015625,-0.450195,0.930664,0.5186936695412662,-25.697583311232602,97.62259626806296,0.642802357673645,-0.14976516366004944,-0.16444210708141327,0.7330308556556702
658c7690-8968-4e6f-854c-4875192787e4,9ad6aa91-cc65-468c-868e-81e05a072707,1762167956063046061,-5.172729,-0.236511,-2.267838,-0.014648,-0.456543,0.938965,0.5097328956131626,-25.741445451601187,97.49042152499084,0.6435796618461609,-0.15014325082302094,-0.16460037231445312,0.7322355508804321
658c7690-8968-4e6f-854c-4875192787e4,9ad6aa91-cc65-468c-868e-81e05a072707,1762167956072673061,-4.928589,-0.480652,-1.962662,-0.030273,-0.445312,0.930664,0.49968898905602294,-25.786166540629008,97.40730855613005,0.6440399885177612,-0.1504492461681366,-0.16483396291732788,0.7317152619361877
658c7690-8968-4e6f-854c-4875192787e4,9ad6aa91-cc65-468c-868e-81e05a072707,1762167956082300061,-4.318237,-0.724792,-1.535416,-0.030273,-0.451172,0.947266,0.49490421914046556,-25.827254659341985,97.3947426498104,0.6440616250038147,-0.1506671905517578,-0.1651071459054947,0.7315897941589355
658c7690-8968-4e6f-854c-4875192787e4,9ad6aa91-cc65-468c-868e-81e05a072707,1762167956091927061,-3.768921,-1.274109,-1.291275,-0.033691,-0.445801,0.933594,0.49383986398440416,-25.862452885766693,97.2814374922762,0.6447387337684631,-0.15102118253707886,-0.1651889830827713,0.7309015989303589
658c7690-8968-4e6f-854c-4875192787e4,9ad6aa91-cc65-468c-868e-81e05a072707,1762167956101554061,-3.829956,-1.579285,-0.802994,-0.038086,-0.451172,0.942383,0.48980628413710786,-25.897019664179705,97.15761142324851,0.6454786062240601,-0.1513681858778,-0.16526906192302704,0.730158269405365
658c7690-8968-4e6f-854c-4875192787e4,9ad6aa91-cc65-468c-868e-81e05a072707,1762167956111130061,-3.707886,-1.88446,0.112534,-0.023926,-0.445312,0.94043,0.48667024232039396,-25.95208809661628,97.03055526493142,0.6462133526802063,-0.15184123814105988,-0.1654699444770813,0.729364275932312
658c7690-8968-4e6f-854c-4875192787e4,9ad6aa91-cc65-468c-868e-81e05a072707,1762167956120705061,-2.975464,-2.250671,0.967026,-0.038574,-0.455078,0.94043,0.48283741920565354,-25.978331512378052,96.93052805538363,0.6468108296394348,-0.1521090567111969,-0.16552616655826569,0.7287658452987671
658c7690-8968-4e6f-854c-4875192787e4,9ad6aa91-cc65-468c-868e-81e05a072707,1762167956130280061,-2.731323,-2.494812,1.211166,-0.039062,-0.456055,0.924316,0.47621520182032145,-26.001399889129715,96.816808799261,0.6474947333335876,-0.15236124396324158,-0.16555938124656677,0.7280979752540588
658c7690-8968-4e6f-854c-4875192787e4,9ad6aa91-cc65-468c-868e-81e05a072707,1762167956139855061,-2.426147,-2.861023,1.943588,-0.026367,-0.444336,0.92334,0.4669051024430194,-26.021873147126655,96.73411027260218,0.6479803919792175,-0.15253709256649017,-0.1656322479248047,0.7276123762130737
658c7690-8968-4e6f-854c-4875192787e4,9ad6aa91-cc65-468c-868e-81e05a072707,1762167956149430061,-2.670288,-2.738953,2.309799,-0.029297,-0.443848,0.930176,0.4616971293118,-26.038459389545114,96.69733954312184,0.6481850743293762,-0.15265080332756042,-0.165718212723732,0.7273865938186646
658c7690-8968-4e6f-854c-4875192787e4,9ad6aa91-cc65-468c-868e-81e05a072707,1762167956157462061,-2.365112,-2.983093,2.981186,-0.017578,-0.444336,0.919922,0.45328817328955245,-26.06159947619571,96.63884576003318,0.648514449596405,-0.15281271934509277,-0.1658349186182022,0.7270323038101196
658c7690-8968-4e6f-854c-4875192787e4,9ad6aa91-cc65-468c-868e-81e05a072707,1762167956165494061,-2.61116,-3.107071,3.225327,-0.01123,-0.439453,0.936035,0.4440065824017203,-26.080877508597126,96.58137586756305,0.6488407850265503,-0.15294593572616577,-0.1659332662820816,0.7266906499862671
658c7690-8968-4e6f-854c-4875192787e4,9ad6aa91-cc65-468c-868e-81e05a072707,1762167956173526061,-2.61116,-3.107071,3.225327,-0.012695,-0.45166,0.924316,0.4324555825039889,-26.10439330228654,96.59632610720949,0.6486989855766296,-0.1529838889837265,-0.1661679893732071,0.7267556190490723
658c7690-8968-4e6f-854c-4875192787e4,9ad6aa91-cc65-468c-868e-81e05a072707,1762167956181558061,-2.975464,-2.861023,3.347397,0.0,-0.453125,0.916016,0.42001901182346396,-26.134438033076737,96.58959553253901,0.6486849188804626,-0.15308454632759094,-0.16642023622989655,0.7266892194747925
658c7690-8968-4e6f-854c-4875192787e4,9ad6aa91-cc65-468c-868e-81e05a072707,1762167956192166061,-3.219604,-2.983093,3.652573,-0.003906,-0.443848,0.918945,0.4111924241818052,-26.162140216387908,96.54193242424901,0.6489385366439819,-0.15325438976287842,-0.1665824055671692,0.7263897657394409
658c7690-8968-4e6f-854c-4875192787e4,9ad6aa91-cc65-468c-868e-81e05a072707,1762167956202774061,-3.52478,-2.983093,3.469467,-0.005371,-0.444824,0.916504,0.39894493234520273,-26.19103271381285,96.48350887402142,0.6492536067962646,-0.15342509746551514,-0.16675697267055511,0.7260320782661438
658c7690-8968-4e6f-854c-4875192787e4,9ad6aa91-cc65-468c-868e-81e05a072707,1762167956213382061,-3.892899,-3.290176,3.591537,0.003418,-0.45459,0.914062,0.3816488685922718,-26.227492155483723,96.43120356732872,0.6495124697685242,-0.15359795093536377,-0.1670161932706833,0.7257043719291687
658c7690-8968-4e6f-854c-4875192787e4,9ad6aa91-cc65-468c-868e-81e05a072707,1762167956224092061,-4.564285,-3.107071,3.347397,-0.008789,-0.462402,0.918457,0.3649753763519804,-26.26547164372298,96.3931429282461,0.6496797800064087,-0.1537628471851349,-0.16730047762393951,0.7254540920257568
658c7690-8968-4e6f-854c-4875192787e4,9ad6aa91-cc65-468c-868e-81e05a072707,1762167956234803061,-3.952026,-2.738953,2.981186,0.01416,-0.46875,0.926269,0.350853919516625,-26.307515576081293,96.32365219620999,0.6500441431999207,-0.1540130376815796,-0.16755367815494537,0.7250161170959473
658c7690-8968-4e6f-854c-4875192787e4,9ad6aa91-cc65-468c-868e-81e05a072707,1762167956245514061,-3.768921,-2.555847,3.042221,0.009277,-0.452637,0.937012,0.3315982578983455,-26.342755445182704,96.24471392738798,0.650469183921814,-0.15420642495155334,-0.16777995228767395,0.7245412468910217
658c7690-8968-4e6f-854c-4875192787e4,9ad6aa91-cc65-468c-868e-81e05a072707,1762167956256182061,-3.587723,-2.069473,2.67601,0.005371,-0.46875,0.932129,0.3026649249347374,-26.40861269649769,96.18125842704052,0.650741457939148,-0.15448994934558868,-0.16827552020549774,0.7241213321685791
658c7690-8968-4e6f-854c-4875192787e4,9ad6aa91-cc65-468c-868e-81e05a072707,1762167956266850061,-3.219604,-2.189636,2.67601,0.005371,-0.452637,0.921387,0.29253656180183973,-26.440763936405588,96.10655150517485,0.6511561870574951,-0.15471810102462769,-0.16843558847904205,0.7236624956130981
658c7690-8968-4e6f-854c-4875192787e4,9ad6aa91-cc65-468c-868e-81e05a072707,1762167956277518061,-3.158569,-1.701355,2.370834,-0.000488,-0.467773,0.925293,0.2850969455423924,-26.471580275304078,96.0717701866128,0.6513242125511169,-0.15489719808101654,-0.16862566769123077,0.7234286069869995
658c7690-8968-4e6f-854c-4875192787e4,9ad6aa91-cc65-468c-868e-81e05a072707,1762167956285488061,-3.036499,-1.091003,2.614975,-0.000488,-0.464355,0.915527,0.28063412246172226,-26.497358422175317,96.015280196032,0.6516401171684265,-0.1550985425710678,-0.1687375009059906,0.7230748534202576
658c7690-8968-4e6f-854c-4875192787e4,9ad6aa91-cc65-468c-868e-81e05a072707,1762167956293458061,-2.916336,-0.97084,2.187729,0.00293,-0.480957,0.922363,0.27478474174915707,-26.525938570827513,95.91965359952137,0.6521968245506287,-0.15536488592624664,-0.16882169246673584,0.7224958539009094
658c7690-8968-4e6f-854c-4875192787e4,9ad6aa91-cc65-468c-868e-81e05a072707,1762167956301428061,-2.61116,-1.276016,2.309799,0.006836,-0.469727,0.926269,0.2743909734639931,-26.555385818423773,95.84701549713436,0.6526150107383728,-0.15563689172267914,-0.1689111590385437,0.7220386266708374
658c7690-8968-4e6f-854c-4875192787e4,9ad6aa91-cc65-468c-868e-81e05a072707,1762167956309398061,-2.36702,-1.642227,2.248764,0.008301,-0.463379,0.923828,0.270084434769824,-26.579727789130185,95.7760818472831,0.6530231237411499,-0.15585285425186157,-0.1689927726984024,0.7216038107872009
658c7690-8968-4e6f-854c-4875192787e4,9ad6aa91-cc65-468c-868e-81e05a072707,1762167956320112061,-2.304077,-0.907898,1.943588,0.007324,-0.461914,0.924805,0.264551404546855,-26.600999105645418,95.70518313303793,0.6534329652786255,-0.15604369342327118,-0.16906186938285828,0.7211753129959106
658c7690-8968-4e6f-854c-4875192787e4,9ad6aa91-cc65-468c-868e-81e05a072707,1762167956330826061,-2.182007,-1.091003,1.943588,0.023438,-0.461426,0.918945,0.25753584794904927,-26.62242285855879,95.62399871619645,0.6539047956466675,-0.15624143183231354,-0.16912618279457092,0.7206895351409912
658c7690-8968-4e6f-854c-4875192787e4,9ad6aa91-cc65-468c-868e-81e05a072707,1762167956341540061,-2.122879,-0.909805,1.394272,0.009766,-0.461426,0.925293,0.24802331196886038,-26.642753383986328,95.53120477543666,0.6544469594955444,-0.1564345359802246,-0.16918182373046875,0.7201422452926636
658c7690-8968-4e6f-854c-4875192787e4,9ad6aa91-cc65-468c-868e-81e05a072707,1762167956352156061,-2.182007,-0.480652,0.967026,0.018066,-0.467773,0.922852,0.2265851872012555,-26.679212606979284,95.4753179595121,0.6547175645828247,-0.15659044682979584,-0.16945722699165344,0.7197976112365723
658c7690-8968-4e6f-854c-4875192787e4,9ad6aa91-cc65-468c-868e-81e05a072707,1762167956362770061,-2.122879,-0.116348,0.66185,0.011719,-0.456055,0.906738,0.22157033630391848,-26.696472755687704,95.38242986080269,0.6552702188491821,-0.15679489076137543,-0.16946734488010406,0.719247579574585
658c7690-8968-4e6f-854c-4875192787e4,9ad6aa91-cc65-468c-868e-81e05a072707,1762167956373384061,-2.61116,0.249863,-0.314713,0.003418,-0.459473,0.92334,0.2169514156116487,-26.71984629368143,95.35889516610027,0.6553796529769897,-0.15693426132202148,-0.16960835456848145,0.7190842032432556
658c7690-8968-4e6f-854c-4875192787e4,9ad6aa91-cc65-468c-868e-81e05a072707,1762167956381392061,-2.428055,0.677109,-1.169205,0.01709,-0.462402,0.928223,0.20993496097276257,-26.744321386111547,95.34053026953,0.6554515361785889,-0.1570572853088379,-0.1697770208120346,0.7189520001411438
658c7690-8968-4e6f-854c-4875192787e4,9ad6aa91-cc65-468c-868e-81e05a072707,1762167956389400061,-2.428055,0.982285,-1.901627,0.020508,-0.471191,0.922363,0.20178524897570127,-26.765985020689868,95.27305115450798,0.6558334827423096,-0.15722998976707458,-0.16986709833145142,0.718544602394104
658c7690-8968-4e6f-854c-4875192787e4,9ad6aa91-cc65-468c-868e-81e05a072707,1762167956397408061,-2.61116,0.860214,-2.328873,0.003906,-0.472656,0.907227,0.19156114308179248,-26.789396671800407,95.17699552001407,0.6563887596130371,-0.15744225680828094,-0.16994060575962067,0.7179734706878662
658c7690-8968-4e6f-854c-4875192787e4,9ad6aa91-cc65-468c-868e-81e05a072707,1762167956405416061,-2.428055,0.982285,-2.634048,0.005371,-0.487793,0.929687,0.18604194219299733,-26.81531429078912,95.0593333050672,0.6570823192596436,-0.15773062407970428,-0.16997285187244415,0.7172677516937256
658c7690-8968-4e6f-854c-4875192787e4,9ad6aa91-cc65-468c-868e-81e05a072707,1762167956416107061,-2.428055,0.555038,-3.061295,-0.004395,-0.468262,0.922363,0.18014103943102652,-26.841049130669365,94.94706687989262,0.6577410101890564,-0.15800777077674866,-0.1700131595134735,0.7165931463241577
658c7690-8968-4e6f-854c-4875192787e4,9ad6aa91-cc65-468c-868e-81e05a072707,1762167956426798061,-2.365112,0.862122,-3.000259,-0.003906,-0.47998,0.928711,0.17109505172604247,-26.860410481191334,94.81834114711724,0.6585057973861694,-0.15825331211090088,-0.1700085699558258,0.715837299823761
658c7690-8968-4e6f-854c-4875192787e4,9ad6aa91-cc65-468c-868e-81e05a072707,1762167956437489061,-1.754761,0.740051,-3.36647,-0.009277,-0.486328,0.920898,0.16415310044866963,-26.883533443241546,94.66802609516644,0.6594023704528809,-0.15856583416461945,-0.16998514533042908,0.7149478197097778
658c7690-8968-4e6f-854c-4875192787e4,9ad6aa91-cc65-468c-868e-81e05a072707,1762167956448157061,-1.756668,0.799179,-3.305435,-0.009277,-0.474121,0.935547,0.15282712930044606,-26.921867275395325,94.54330909167449,0.6601108312606812,-0.15890082716941833,-0.17011678218841553,0.7141879796981812
658c7690-8968-4e6f-854c-4875192787e4,9ad6aa91-cc65-468c-868e-81e05a072707,1762167956458826061,-1.51062,0.923157,-3.305435,-0.022461,-0.481934,0.926269,0.15384017547817733,-26.93634469183893,94.46763952069334,0.6605639457702637,-0.15910284221172333,-0.17009620368480682,0.7137287855148315
658c7690-8968-4e6f-854c-4875192787e4,9ad6aa91-cc65-468c-868e-81e05a072707,1762167956469495061,-1.268387,0.799179,-3.2444,-0.007812,-0.474121,0.934082,0.14966250632007674,-26.947198622000073,94.39156494247986,0.6610165238380432,-0.15925228595733643,-0.1700822412967682,0.713279664516449
658c7690-8968-4e6f-854c-4875192787e4,9ad6aa91-cc65-468c-868e-81e05a072707,1762167956477521061,-0.717163,0.434875,-2.756119,-0.013672,-0.46875,0.929687,0.14760186768694167,-26.95491349628526,94.32556837534001,0.6614135503768921,-0.1593818962574005,-0.17005041241645813,0.7128901481628418
658c7690-8968-4e6f-854c-4875192787e4,9ad6aa91-cc65-468c-868e-81e05a072707,1762167956485549061,-0.534058,0.068665,-2.450943,-0.003906,-0.47998,0.924316,0.14724868278821057,-26.958910411083885,94.2157018721941,0.6620907187461853,-0.1595657616853714,-0.16992442309856415,0.7122501134872437
658c7690-8968-4e6f-854c-4875192787e4,9ad6aa91-cc65-468c-868e-81e05a072707,1762167956493577061,0.137329,-0.053406,-1.840591,-0.02002,-0.467285,0.9375,0.14215725635307822,-26.962594312681688,94.10398257966253,0.6627721786499023,-0.1597210168838501,-0.1698211133480072,0.7116059064865112
658c7690-8968-4e6f-854c-4875192787e4,9ad6aa91-cc65-468c-868e-81e05a072707,1762167956501605061,0.137329,-0.541687,-1.718521,-0.012207,-0.464844,0.951172,0.14635272154264392,-26.957264259287502,94.00407726254636,0.6634058952331543,-0.15986420214176178,-0.1696244180202484,0.7110299468040466
658c7690-8968-4e6f-854c-4875192787e4,9ad6aa91-cc65-468c-868e-81e05a072707,1762167956512194061,1.052856,-0.541687,-1.413345,-0.010254,-0.457031,0.932617,0.1407625395824405,-26.946060515706904,93.93973495368157,0.6638122200965881,-0.15985989570617676,-0.16949748992919922,0.7106818556785583
658c7690-8968-4e6f-854c-4875192787e4,9ad6aa91-cc65-468c-868e-81e05a072707,1762167956522783061,1.602173,-0.968933,-0.802994,-0.014648,-0.473145,0.933594,0.13180144761814142,-26.932900666316005,93.87977364949091,0.6641889214515686,-0.15981678664684296,-0.16938413679599762,0.7103665471076965
658c7690-8968-4e6f-854c-4875192787e4,9ad6aa91-cc65-468c-868e-81e05a072707,1762167956533372061,1.48201,-1.153946,-0.314713,-0.012695,-0.459961,0.927246,0.12279245517652612,-26.91709249959108,93.7858292580122,0.6647796034812927,-0.15980812907218933,-0.1692073494195938,0.7098579406738281
658c7690-8968-4e6f-854c-4875192787e4,9ad6aa91-cc65-468c-868e-81e05a072707,1762167956541386061,1.358032,-1.396179,-0.253677,0.000977,-0.449707,0.913086,0.10548483328045856,-26.88361484721479,93.71667366129056,0.6652286052703857,-0.15960881114006042,-0.16900397837162018,0.7095305323600769
658c7690-8968-4e6f-854c-4875192787e4,9ad6aa91-cc65-468c-868e-81e05a072707,1762167956549401061,1.050949,-0.97084,0.417709,-0.006348,-0.45752,0.914551,0.10134224688428807,-26.873116624084734,93.67106463579496,0.6655193567276001,-0.159589484333992,-0.16889949142932892,0.7092870473861694
658c7690-8968-4e6f-854c-4875192787e4,9ad6aa91-cc65-468c-868e-81e05a072707,1762167956557416061,0.747681,-1.029968,0.417709,-0.010254,-0.455078,0.917969,0.09946966834648921,-26.86948194355035,93.60179842202855,0.6659502387046814,-0.15965884923934937,-0.16879138350486755,0.7088926434516907
658c7690-8968-4e6f-854c-4875192787e4,9ad6aa91-cc65-468c-868e-81e05a072707,1762167956565431061,0.013351,-1.028061,0.53978,-0.009277,-0.445312,0.911621,0.09934149588816983,-26.862810113992406,93.51098074840823,0.666520893573761,-0.1597529947757721,-0.16862428188323975,0.7083746790885925
658c7690-8968-4e6f-854c-4875192787e4,9ad6aa91-cc65-468c-868e-81e05a072707,1762167956576098061,-0.656128,-0.907898,1.333237,0.003906,-0.460449,0.913086,0.09948123201048878,-26.86962795218036,93.4283786945832,0.6670221090316772,-0.159915030002594,-0.16855040192604065,0.7078837752342224
658c7690-8968-4e6f-854c-4875192787e4,9ad6aa91-cc65-468c-868e-81e05a072707,1762167956586765061,-1.325607,-0.665665,1.150131,-0.003418,-0.44043,0.908203,0.10265757690496541,-26.877052725548747,93.34713514899252,0.6675181984901428,-0.16009733080863953,-0.16846433281898499,0.7073952555656433
658c7690-8968-4e6f-854c-4875192787e4,9ad6aa91-cc65-468c-868e-81e05a072707,1762167956597432061,-1.266479,-0.907898,1.516342,-0.009277,-0.458496,0.905273,0.1027844641184547,-26.88905526484753,93.27735261325417,0.667932391166687,-0.1602706015110016,-0.16844014823436737,0.7069706916809082
658c7690-8968-4e6f-854c-4875192787e4,9ad6aa91-cc65-468c-868e-81e05a072707,1762167956605417061,-1.754761,-0.419617,1.943588,-0.001465,-0.445801,0.923828,0.10512724307624656,-26.899821007151342,93.23949451292815,0.6681544184684753,-0.16040344536304474,-0.16843995451927185,0.7067307233810425
658c7690-8968-4e6f-854c-4875192787e4,9ad6aa91-cc65-468c-868e-81e05a072707,1762167956613402061,-1.573563,-0.482559,1.943588,-0.004883,-0.460938,0.912598,0.1081749343361696,-26.912038085970995,93.24354873509179,0.6681169271469116,-0.16048745810985565,-0.16850323975086212,0.7067320942878723
658c7690-8968-4e6f-854c-4875192787e4,9ad6aa91-cc65-468c-868e-81e05a072707,1762167956621387061,-1.451492,-0.665665,2.248764,-0.002441,-0.450195,0.916992,0.11042584716495751,-26.922081333252276,93.19870128504186,0.6683828234672546,-0.16062584519386292,-0.1684892326593399,0.7064524292945862
658c7690-8968-4e6f-854c-4875192787e4,9ad6aa91-cc65-468c-868e-81e05a072707,1762167956629372061,-2.122879,-0.787735,2.126694,-0.001953,-0.459961,0.920898,0.1135113985598675,-26.935806973221034,93.18408120315893,0.6684584021568298,-0.16074636578559875,-0.16853538155555725,0.7063425779342651
658c7690-8968-4e6f-854c-4875192787e4,9ad6aa91-cc65-468c-868e-81e05a072707,1762167956640051061,-1.937866,-0.907898,2.370834,-0.006348,-0.452148,0.928223,0.11303743471073677,-26.94989871060702,93.2180908810935,0.6682284474372864,-0.1607755720615387,-0.16867277026176453,0.7065206170082092
658c7690-8968-4e6f-854c-4875192787e4,9ad6aa91-cc65-468c-868e-81e05a072707,1762167956650730061,-1.754761,-0.724792,2.370834,0.002441,-0.458984,0.936035,0.11263715518641298,-26.963280790366728,93.16115210524848,0.6685602068901062,-0.1609349250793457,-0.1686777025461197,0.7061692476272583
658c7690-8968-4e6f-854c-4875192787e4,9ad6aa91-cc65-468c-868e-81e05a072707,1762167956661409061,-1.51062,-0.480652,1.882553,0.0,-0.458008,0.918945,0.11455262320301537,-26.97465788894064,93.08913398985817,0.6689908504486084,-0.16111908853054047,-0.16863544285297394,0.7057293653488159
658c7690-8968-4e6f-854c-4875192787e4,9ad6aa91-cc65-468c-868e-81e05a072707,1762167956672063061,-1.939774,0.188828,1.455307,0.007324,-0.45752,0.928223,0.11241495922946022,-26.983982547901803,93.03248413143277,0.6693235039710999,-0.16124370694160461,-0.16862568259239197,0.7053877711296082
658c7690-8968-4e6f-854c-4875192787e4,9ad6aa91-cc65-468c-868e-81e05a072707,1762167956682716061,-1.754761,0.923157,0.66185,0.014648,-0.463379,0.916504,0.11565825883215104,-26.998345228668427,92.97768271937976,0.6696454882621765,-0.16142818331718445,-0.16861800849437714,0.7050417065620422
658c7690-8968-4e6f-854c-4875192787e4,9ad6aa91-cc65-468c-868e-81e05a072707,1762167956693369061,-1.813889,0.982285,0.234604,0.023926,-0.479492,0.916992,0.11660394708018516,-27.013824000574264,92.91536968082774,0.6700085401535034,-0.16161613166332245,-0.16861990094184875,0.7046531438827515
658c7690-8968-4e6f-854c-4875192787e4,9ad6aa91-cc65-468c-868e-81e05a072707,1762167956701379061,-1.939774,0.677109,-0.070572,-0.001465,-0.471191,0.924805,0.11872018998181702,-27.048918142647366,92.80069387194615,0.6706673502922058,-0.16200308501720428,-0.16866138577461243,0.7039272785186768
658c7690-8968-4e6f-854c-4875192787e4,9ad6aa91-cc65-468c-868e-81e05a072707,1762167956709389061,-1.63269,0.740051,-0.253677,0.006836,-0.462402,0.911133,0.11950960759937965,-27.06255022296365,92.8170524503242,0.6705489158630371,-0.1620635837316513,-0.1687636822462082,0.7040016651153564
658c7690-8968-4e6f-854c-4875192787e4,9ad6aa91-cc65-468c-868e-81e05a072707,1762167956717399061,-1.754761,0.556946,-0.558853,0.001953,-0.46875,0.931152,0.1203986148067489,-27.074218862676855,92.72617195287309,0.6710919737815857,-0.16227112710475922,-0.16870155930519104,0.7034510970115662
658c7690-8968-4e6f-854c-4875192787e4,9ad6aa91-cc65-468c-868e-81e05a072707,1762167956725409061,-1.876831,1.045227,-0.680923,0.011719,-0.46582,0.920898,0.12301337490024367,-27.090866720775256,92.62044828379061,0.6717211604118347,-0.1625402867794037,-0.16863860189914703,0.7028031945228577
658c7690-8968-4e6f-854c-4875192787e4,9ad6aa91-cc65-468c-868e-81e05a072707,1762167956736085061,-1.876831,0.923157,-1.047134,-0.002441,-0.478516,0.919922,0.12691648037761585,-27.11051029983482,92.55669572724194,0.6720901727676392,-0.16277316212654114,-0.1686457246541977,0.7023946642875671
658c7690-8968-4e6f-854c-4875192787e4,9ad6aa91-cc65-468c-868e-81e05a072707,1762167956746761061,-1.939774,1.291275,-1.291275,0.010254,-0.480469,0.936035,0.12599071849550372,-27.126196680344165,92.48923525635995,0.6724801063537598,-0.16295874118804932,-0.16865144670009613,0.7019769549369812
658c7690-8968-4e6f-854c-4875192787e4,9ad6aa91-cc65-468c-868e-81e05a072707,1762167956757437061,-1.876831,1.594543,-1.413345,0.000977,-0.468262,0.930176,0.1344069105319084,-27.13744658652477,92.41939920963605,0.6729043126106262,-0.16317903995513916,-0.1685715913772583,0.7015383243560791
658c7690-8968-4e6f-854c-4875192787e4,9ad6aa91-cc65-468c-868e-81e05a072707,1762167956768090061,-1.693726,1.960754,-1.657486,0.0,-0.466797,0.919434,0.1439924961310467,-27.15013424597768,92.32918142128611,0.673452615737915,-0.1634448766708374,-0.16846439242362976,0.700975775718689
658c7690-8968-4e6f-854c-4875192787e4,9ad6aa91-cc65-468c-868e-81e05a072707,1762167956778743061,-1.754761,2.02179,-1.596451,-0.007324,-0.473633,0.917969,0.15341669824017728,-27.164670227447534,92.2516239173583,0.673920214176178,-0.1637018918991089,-0.16838721930980682,0.7004848122596741
658c7690-8968-4e6f-854c-4875192787e4,9ad6aa91-cc65-468c-868e-81e05a072707,1762167956789396061,-1.327515,2.388,-1.413345,-0.001953,-0.475586,0.92041,0.16628802370507462,-27.182034304032413,92.20335423860308,0.6742095947265625,-0.16395354270935059,-0.16834868490695953,0.7001566886901855
658c7690-8968-4e6f-854c-4875192787e4,9ad6aa91-cc65-468c-868e-81e05a072707,1762167956797406061,-1.51062,2.876282,-1.35231,-0.003906,-0.474609,0.926269,0.20171187293404885,-27.20954980458196,92.0075733468206,0.6754178404808044,-0.16461904346942902,-0.16802749037742615,0.6989120841026306
658c7690-8968-4e6f-854c-4875192787e4,9ad6aa91-cc65-468c-868e-81e05a072707,1762167956805415061,-1.998901,2.937317,-1.23024,-0.01416,-0.481445,0.917969,0.22665609509572918,-27.228500388676448,91.98387752293202,0.6755720973014832,-0.16491751372814178,-0.16796204447746277,0.6987082958221436
658c7690-8968-4e6f-854c-4875192787e4,9ad6aa91-cc65-468c-868e-81e05a072707,1762167956813424061,-1.754761,2.876282,-0.802994,-0.006348,-0.464844,0.925293,0.2513834982327609,-27.24044003182909,91.95659450155622,0.6757577657699585,-0.1651785671710968,-0.1678498089313507,0.698494017124176
658c7690-8968-4e6f-854c-4875192787e4,9ad6aa91-cc65-468c-868e-81e05a072707,1762167956821433061,-1.937866,2.876282,-1.047134,-0.015137,-0.488281,0.915527,0.27786929099996505,-27.258188189247868,91.90822190289377,0.6760662198066711,-0.16551536321640015,-0.16773205995559692,0.6981440186500549
658c7690-8968-4e6f-854c-4875192787e4,9ad6aa91-cc65-468c-868e-81e05a072707,1762167956832149061,-1.573563,3.118515,-0.925064,-0.019043,-0.473145,0.921387,0.30531008861697706,-27.268966248858682,91.8389095648057,0.6765132546424866,-0.16584740579128265,-0.16753561794757843,0.6976792216300964
658c7690-8968-4e6f-854c-4875192787e4,9ad6aa91-cc65-468c-868e-81e05a072707,1762167956842865061,-1.205444,2.876282,-0.802994,-0.013184,-0.47168,0.919922,0.3315927219136538,-27.277384302174337,91.7751140544909,0.6769280433654785,-0.1661502569913864,-0.1673392951488495,0.6972517371177673
658c7690-8968-4e6f-854c-4875192787e4,9ad6aa91-cc65-468c-868e-81e05a072707,1762167956853581061,-0.902176,2.93541,-0.864029,-0.018555,-0.471191,0.932129,0.35708683379600376,-27.280450985203895,91.71989409592825,0.6772968173027039,-0.16640400886535645,-0.16712720692157745,0.6968839168548584
658c7690-8968-4e6f-854c-4875192787e4,9ad6aa91-cc65-468c-868e-81e05a072707,1762167956861543061,-0.534058,2.815247,-0.986099,-0.022461,-0.476562,0.925293,0.3872412766122119,-27.286669056366577,91.62879108198027,0.6778857707977295,-0.1667567789554596,-0.16685432195663452,0.6962921023368835
658c7690-8968-4e6f-854c-4875192787e4,9ad6aa91-cc65-468c-868e-81e05a072707,1762167956869505061,-0.228882,2.693176,-1.10817,-0.019043,-0.470215,0.917969,0.41020138469392114,-27.285477628146978,91.52970854948512,0.6785226464271545,-0.1670333445072174,-0.1665668785572052,0.6956740021705627
658c7690-8968-4e6f-854c-4875192787e4,9ad6aa91-cc65-468c-868e-81e05a072707,1762167956877467061,-0.106812,2.204895,-0.986099,-0.005371,-0.476562,0.922363,0.4300155423298489,-27.28883832335213,91.48523530385161,0.6788166165351868,-0.16723808646202087,-0.1664050966501236,0.6953766942024231
658c7690-8968-4e6f-854c-4875192787e4,9ad6aa91-cc65-468c-868e-81e05a072707,1762167956885429061,0.015259,1.899719,-0.741959,-0.030762,-0.468262,0.916992,0.4530649204395025,-27.287249397414932,91.44862005290818,0.6790744662284851,-0.16742166876792908,-0.16620540618896484,0.6951285004615784
658c7690-8968-4e6f-854c-4875192787e4,9ad6aa91-cc65-468c-868e-81e05a072707,1762167956896099061,-0.045776,0.923157,-0.802994,-0.02832,-0.460449,0.916992,0.4653053388383387,-27.282238605616044,91.40707382045991,0.679351270198822,-0.167526513338089,-0.16604168713092804,0.6948717832565308
658c7690-8968-4e6f-854c-4875192787e4,9ad6aa91-cc65-468c-868e-81e05a072707,1762167956906769061,-0.289917,0.923157,-0.436783,-0.012207,-0.456055,0.90918,0.46860980093015914,-27.279117571251135,91.42685166558357,0.6792405247688293,-0.16749942302703857,-0.16603204607963562,0.6949889063835144
658c7690-8968-4e6f-854c-4875192787e4,9ad6aa91-cc65-468c-868e-81e05a072707,1762167956917439061,-0.597,0.494003,0.234604,-0.019531,-0.459473,0.90625,0.47854299090326846,-27.27828403260678,91.42185067609566,0.6792864203453064,-0.16756197810173035,-0.16596078872680664,0.6949459910392761
658c7690-8968-4e6f-854c-4875192787e4,9ad6aa91-cc65-468c-868e-81e05a072707,1762167956925439061,-1.144409,0.434875,0.356674,-0.020996,-0.450195,0.905762,0.4881949845045179,-27.27444860411995,91.36585694563863,0.679645299911499,-0.1676788628101349,-0.1657983511686325,0.6946055889129639
658c7690-8968-4e6f-854c-4875192787e4,9ad6aa91-cc65-468c-868e-81e05a072707,1762167956933438061,-1.571655,0.923157,0.53978,-0.004395,-0.460938,0.905273,0.49702102425397743,-27.277174309551498,91.30403438945517,0.6800288558006287,-0.16783790290355682,-0.16567203402519226,0.6942217946052551
658c7690-8968-4e6f-854c-4875192787e4,9ad6aa91-cc65-468c-868e-81e05a072707,1762167956941437061,-1.815796,0.862122,0.173569,-0.012207,-0.465332,0.91748,0.5082223388651733,-27.28996678760353,91.2407972858698,0.6804099678993225,-0.168072909116745,-0.16559049487113953,0.6938108801841736
658c7690-8968-4e6f-854c-4875192787e4,9ad6aa91-cc65-468c-868e-81e05a072707,1762167956949436061,-2.122879,0.619888,0.173569,-0.004883,-0.459961,0.899902,0.518634317394227,-27.30519314884288,91.16706920198327,0.6808497309684753,-0.16833268105983734,-0.1655127853155136,0.6933348774909973
658c7690-8968-4e6f-854c-4875192787e4,9ad6aa91-cc65-468c-868e-81e05a072707,1762167956960101061,-2.183914,0.799179,0.173569,-0.006348,-0.474121,0.919922,0.5253164004276463,-27.32455108117965,91.09385331971696,0.6812748312950134,-0.168593630194664,-0.1654827743768692,0.6928609013557434
658c7690-8968-4e6f-854c-4875192787e4,9ad6aa91-cc65-468c-868e-81e05a072707,1762167956970766061,-2.487183,0.679016,0.051498,-0.008789,-0.469238,0.908691,0.5309966640777891,-27.34427515686412,91.02110494880247,0.6816948056221008,-0.16885004937648773,-0.16546136140823364,0.6923903226852417
658c7690-8968-4e6f-854c-4875192787e4,9ad6aa91-cc65-468c-868e-81e05a072707,1762167956981431061,-2.916336,0.860214,-0.253677,-0.01123,-0.477051,0.912109,0.5399708169264942,-27.367222657281612,91.03722987653542,0.6815778017044067,-0.16901718080043793,-0.1655707210302353,0.692438542842865
658c7690-8968-4e6f-854c-4875192787e4,9ad6aa91-cc65-468c-868e-81e05a072707,1762167956989558061,-2.855301,0.494003,-0.314713,0.012695,-0.481445,0.925781,0.5419433823298747,-27.41343825967764,90.96718251065903,0.6819381713867188,-0.16940467059612274,-0.16573534905910492,0.6919494867324829
658c7690-8968-4e6f-854c-4875192787e4,9ad6aa91-cc65-468c-868e-81e05a072707,1762167956997685061,-2.487183,0.495911,-0.741959,-0.003906,-0.474121,0.917969,0.5417258999316091,-27.432997435070206,90.96462774113418,0.6819254755973816,-0.16952316462993622,-0.16585123538970947,0.6919052600860596
658c7690-8968-4e6f-854c-4875192787e4,9ad6aa91-cc65-468c-868e-81e05a072707,1762167957005812061,-2.487183,0.434875,-0.802994,-0.00293,-0.48877,0.927246,0.5391119000992302,-27.454739642277886,90.96785301692238,0.6818712949752808,-0.16963224112987518,-0.16600315272808075,0.6918936967849731
658c7690-8968-4e6f-854c-4875192787e4,9ad6aa91-cc65-468c-868e-81e05a072707,1762167957013939061,-1.876831,0.25177,-1.10817,-0.015625,-0.483398,0.90332,0.5384645540563275,-27.473302351677756,90.88808646822685,0.6823253631591797,-0.1698540896177292,-0.16600114107131958,0.6913920640945435
658c7690-8968-4e6f-854c-4875192787e4,9ad6aa91-cc65-468c-868e-81e05a072707,1762167957024466061,-1.571655,0.068665,-1.47438,-0.000488,-0.477539,0.928711,0.5310061079571304,-27.486366717661564,90.79429765456466,0.6828615665435791,-0.17002259194850922,-0.16598545014858246,0.6908248662948608
658c7690-8968-4e6f-854c-4875192787e4,9ad6aa91-cc65-468c-868e-81e05a072707,1762167957034993061,-1.327515,0.190735,-1.413345,-0.010742,-0.468262,0.907715,0.525635599783677,-27.494405731112355,90.70196355050332,0.6833987236022949,-0.17017176747322083,-0.16592895984649658,0.6902703046798706
658c7690-8968-4e6f-854c-4875192787e4,9ad6aa91-cc65-468c-868e-81e05a072707,1762167957045520061,-1.085281,0.494003,-1.840591,-0.008789,-0.487305,0.916016,0.5229160497956079,-27.50723146234576,90.67647254885898,0.6835299730300903,-0.17026861011981964,-0.16598473489284515,0.6901031136512756
658c7690-8968-4e6f-854c-4875192787e4,9ad6aa91-cc65-468c-868e-81e05a072707,1762167957056172061,-0.778198,0.25177,-1.596451,-0.010742,-0.464844,0.921875,0.5192224049183797,-27.513424210164697,90.63203986121297,0.6837832927703857,-0.17034758627414703,-0.1659781038761139,0.6898342370986938
658c7690-8968-4e6f-854c-4875192787e4,9ad6aa91-cc65-468c-868e-81e05a072707,1762167957066825061,-0.534058,0.068665,-1.657486,-0.01709,-0.477051,0.916992,0.5129739783507584,-27.51908353372596,90.54761259027376,0.6842741966247559,-0.17046594619750977,-0.16592398285865784,0.6893311142921448
658c7690-8968-4e6f-854c-4875192787e4,9ad6aa91-cc65-468c-868e-81e05a072707,1762167957077478061,-0.534058,-0.114441,-1.657486,-0.019043,-0.476562,0.913086,0.5078457774305891,-27.522945947739,90.57098895419144,0.6841205954551697,-0.17042425274848938,-0.16601265966892242,0.689472496509552
658c7690-8968-4e6f-854c-4875192787e4,9ad6aa91-cc65-468c-868e-81e05a072707,1762167957085450061,0.015259,-0.236511,-1.657486,-0.005859,-0.481445,0.928711,0.5030872581112593,-27.52915170521279,90.60837970171627,0.6838797926902771,-0.17037838697433472,-0.1661340892314911,0.6896934509277344
658c7690-8968-4e6f-854c-4875192787e4,9ad6aa91-cc65-468c-868e-81e05a072707,1762167957093422061,-0.349045,-0.177383,-1.23024,-0.01416,-0.47998,0.916992,0.49474440261679586,-27.53269353778185,90.53526960393485,0.6843025088310242,-0.17045527696609497,-0.1660965234041214,0.6892640590667725
658c7690-8968-4e6f-854c-4875192787e4,9ad6aa91-cc65-468c-868e-81e05a072707,1762167957101394061,-0.045776,-0.175476,-1.10817,-0.01123,-0.488281,0.919922,0.4979164708857149,-27.533105292104707,90.46283060724683,0.6847420930862427,-0.17058175802230835,-0.1659722626209259,0.6888260245323181
658c7690-8968-4e6f-854c-4875192787e4,9ad6aa91-cc65-468c-868e-81e05a072707,1762167957109366061,0.196457,-0.177383,-1.10817,-0.000488,-0.470703,0.934082,0.49792653083437144,-27.532274033429957,90.38533609268295,0.6852089762687683,-0.17068906128406525,-0.16585180163383484,0.6883640289306641
658c7690-8968-4e6f-854c-4875192787e4,9ad6aa91-cc65-468c-868e-81e05a072707,1762167957120052061,0.442505,-0.297546,-0.619888,-0.004395,-0.479492,0.919434,0.4950817570141713,-27.52931645960992,90.33791038836969,0.6854939460754395,-0.17072294652462006,-0.16578036546707153,0.6880890727043152
658c7690-8968-4e6f-854c-4875192787e4,9ad6aa91-cc65-468c-868e-81e05a072707,1762167957130738061,0.501633,0.005722,-0.986099,0.003906,-0.479004,0.927246,0.49298551077531233,-27.528277707598324,90.2933247569549,0.6857600808143616,-0.17076866328716278,-0.16572022438049316,0.687826931476593
658c7690-8968-4e6f-854c-4875192787e4,9ad6aa91-cc65-468c-868e-81e05a072707,1762167957141424061,0.867844,-0.177383,-0.680923,-0.005371,-0.481445,0.918457,0.4930454225641314,-27.52593828559668,90.24746770078202,0.6860387325286865,-0.17082135379314423,-0.16563744843006134,0.6875558495521545
658c7690-8968-4e6f-854c-4875192787e4,9ad6aa91-cc65-468c-868e-81e05a072707,1762167957149420061,0.747681,0.25177,-0.619888,-0.000488,-0.461426,0.916504,0.48506810929960925,-27.513686286395043,90.20149912769647,0.6863206028938293,-0.1707667112350464,-0.16554304957389832,0.6873108148574829
658c7690-8968-4e6f-854c-4875192787e4,9ad6aa91-cc65-468c-868e-81e05a072707,1762167957157417061,0.989914,0.188828,-0.986099,-0.009277,-0.453125,0.916016,0.4831969835674986,-27.502947727570742,90.14959430008473,0.6866446137428284,-0.17076626420021057,-0.16541238129138947,0.687018632888794
658c7690-8968-4e6f-854c-4875192787e4,9ad6aa91-cc65-468c-868e-81e05a072707,1762167957165414061,1.234055,0.310898,-0.802994,-0.009766,-0.461914,0.907715,0.48264740022174124,-27.489764125113357,90.10517744956374,0.6869290471076965,-0.17074821889400482,-0.16527029871940613,0.686772882938385
658c7690-8968-4e6f-854c-4875192787e4,9ad6aa91-cc65-468c-868e-81e05a072707,1762167957173411061,0.930786,0.495911,-0.986099,-0.009766,-0.461914,0.924805,0.48023368449431175,-27.47200353058135,90.07937179170854,0.6871057748794556,-0.1706647127866745,-0.16513967514038086,0.6866481900215149
658c7690-8968-4e6f-854c-4875192787e4,9ad6aa91-cc65-468c-868e-81e05a072707,1762167957184062061,0.989914,0.799179,-1.35231,0.008789,-0.459961,0.912598,0.47485223301427537,-27.459380946078763,90.0096597615914,0.6875337958335876,-0.17065735161304474,-0.16499236226081848,0.6862568259239197
658c7690-8968-4e6f-854c-4875192787e4,9ad6aa91-cc65-468c-868e-81e05a072707,1762167957194713061,1.050949,0.677109,-1.23024,0.004883,-0.466797,0.924805,0.4673004297828573,-27.44763167740035,89.93851117459616,0.6879658102989197,-0.17064417898654938,-0.16486124694347382,0.6858584880828857
658c7690-8968-4e6f-854c-4875192787e4,9ad6aa91-cc65-468c-868e-81e05a072707,1762167957205364061,0.869751,1.045227,-1.535416,-0.002441,-0.466309,0.914551,0.4640904021974816,-27.436981900435207,89.87463973231635,0.688358724117279,-0.17065253853797913,-0.1647215485572815,0.6854974627494812
658c7690-8968-4e6f-854c-4875192787e4,9ad6aa91-cc65-468c-868e-81e05a072707,1762167957216081061,0.62561,1.411438,-1.901627,-0.009766,-0.458496,0.911621,0.4638307736549232,-27.422798218228866,89.80705193458763,0.6887829899787903,-0.1706630289554596,-0.1645374596118927,0.6851127743721008
658c7690-8968-4e6f-854c-4875192787e4,9ad6aa91-cc65-468c-868e-81e05a072707,1762167957226798061,0.196457,1.291275,-2.206802,-0.006348,-0.448242,0.927734,0.46801639751128943,-27.413156020321754,89.7387100269124,0.689211368560791,-0.17072826623916626,-0.16435274481773376,0.684709906578064
658c7690-8968-4e6f-854c-4875192787e4,9ad6aa91-cc65-468c-868e-81e05a072707,1762167957237515061,0.198364,1.594543,-2.023697,-0.015137,-0.44873,0.912109,0.4709502704643804,-27.399408504731824,89.6356891885777,0.6898506879806519,-0.17081086337566376,-0.1640992909669876,0.6841060519218445
658c7690-8968-4e6f-854c-4875192787e4,9ad6aa91-cc65-468c-868e-81e05a072707,1762167957245484061,0.137329,1.716614,-2.023697,-0.00293,-0.449707,0.924316,0.48185669292361094,-27.37681339001584,89.54244143755939,0.6904553174972534,-0.17087353765964508,-0.16375946998596191,0.6835616230964661
658c7690-8968-4e6f-854c-4875192787e4,9ad6aa91-cc65-468c-868e-81e05a072707,1762167957253452061,0.137329,1.899719,-1.291275,-0.003906,-0.448242,0.914062,0.49367317785112463,-27.3668827251961,89.48901279259861,0.6908051371574402,-0.17096059024333954,-0.16354921460151672,0.6832366585731506
658c7690-8968-4e6f-854c-4875192787e4,9ad6aa91-cc65-468c-868e-81e05a072707,1762167957261420061,-0.534058,2.082825,-1.291275,-0.015625,-0.440918,0.919922,0.5092332623504638,-27.361000177442186,89.45290330559213,0.6910510659217834,-0.1710694581270218,-0.16336636245250702,0.6830044388771057
658c7690-8968-4e6f-854c-4875192787e4,9ad6aa91-cc65-468c-868e-81e05a072707,1762167957269388061,-0.656128,2.02179,-0.986099,-0.01709,-0.45752,0.917969,0.527435914138831,-27.358860619069926,89.45150197681686,0.6910884380340576,-0.17116707563400269,-0.16324171423912048,0.6829719543457031
658c7690-8968-4e6f-854c-4875192787e4,9ad6aa91-cc65-468c-868e-81e05a072707,1762167957280068061,-0.534058,1.838684,-0.680923,-0.012695,-0.455078,0.922363,0.5448790761555375,-27.355792330434912,89.42131265227187,0.6912975907325745,-0.17129553854465485,-0.16307306289672852,0.6827683448791504
658c7690-8968-4e6f-854c-4875192787e4,9ad6aa91-cc65-468c-868e-81e05a072707,1762167957290748061,-0.656128,2.082825,-0.192642,-0.008301,-0.447754,0.908691,0.5648242037289029,-27.350753341741637,89.39155183384084,0.6915104985237122,-0.17142635583877563,-0.1628781259059906,0.6825664043426514
658c7690-8968-4e6f-854c-4875192787e4,9ad6aa91-cc65-468c-868e-81e05a072707,1762167957301428061,-0.839233,1.899719,0.173569,-0.010254,-0.458008,0.929199,0.5843326600837789,-27.351770217569122,89.32805451893066,0.6919148564338684,-0.1716388463973999,-0.16267138719558716,0.6821523904800415
658c7690-8968-4e6f-854c-4875192787e4,9ad6aa91-cc65-468c-868e-81e05a072707,1762167957312158061,-1.266479,1.716614,0.600815,-0.007324,-0.449707,0.921387,0.6045111668790504,-27.35600882859041,89.2716586907056,0.6922730207443237,-0.17186447978019714,-0.16249027848243713,0.6817752718925476
658c7690-8968-4e6f-854c-4875192787e4,9ad6aa91-cc65-468c-868e-81e05a072707,1762167957322888061,-1.38855,1.716614,0.600815,-0.019531,-0.454102,0.920898,0.6251888348501085,-27.359209702939253,89.2311417759678,0.6925387382507324,-0.1720641851425171,-0.16232362389564514,0.6814947128295898
658c7690-8968-4e6f-854c-4875192787e4,9ad6aa91-cc65-468c-868e-81e05a072707,1762167957333618061,-1.205444,1.716614,0.417709,-0.017578,-0.460449,0.913086,0.6467580149070855,-27.36778924662634,89.18544498172994,0.6928286552429199,-0.17230886220932007,-0.1621757298707962,0.6811733245849609
658c7690-8968-4e6f-854c-4875192787e4,9ad6aa91-cc65-468c-868e-81e05a072707,1762167957341559061,-1.813889,1.470566,0.417709,-0.018066,-0.458008,0.923828,0.6627213174787903,-27.374107129515743,89.16821355631785,0.6929445862770081,-0.1724662184715271,-0.1620909422636032,0.6810357570648193
658c7690-8968-4e6f-854c-4875192787e4,9ad6aa91-cc65-468c-868e-81e05a072707,1762167957349498061,-1.144409,1.289368,0.112534,-0.009277,-0.460449,0.920898,0.6778431068697635,-27.38011155161502,89.19631440275519,0.6927903294563293,-0.17255255579948425,-0.16207760572433472,0.6811739802360535
658c7690-8968-4e6f-854c-4875192787e4,9ad6aa91-cc65-468c-868e-81e05a072707,1762167957357437061,-1.325607,1.470566,0.051498,-0.012695,-0.451172,0.913086,0.6861790280748513,-27.384531668997266,89.1643261369434,0.6929858922958374,-0.17267398536205292,-0.16200536489486694,0.6809614300727844
658c7690-8968-4e6f-854c-4875192787e4,9ad6aa91-cc65-468c-868e-81e05a072707,1762167957365376061,-1.266479,1.533508,-0.131607,-0.006348,-0.461914,0.908691,0.6979487827661291,-27.389761731934776,89.1220410756111,0.6932462453842163,-0.17283521592617035,-0.161901593208313,0.6806801557540894
658c7690-8968-4e6f-854c-4875192787e4,9ad6aa91-cc65-468c-868e-81e05a072707,1762167957373384061,-1.756668,1.16539,-0.314713,-0.001465,-0.450684,0.917969,0.7079565409642135,-27.3991919362413,89.10412812558572,0.6933532357215881,-0.17297685146331787,-0.16187019646167755,0.6805426478385925
658c7690-8968-4e6f-854c-4875192787e4,9ad6aa91-cc65-468c-868e-81e05a072707,1762167957381392061,-2.182007,1.289368,-0.192642,-0.016113,-0.474609,0.933105,0.7127699402688423,-27.407265336062046,89.0699135609363,0.6935515999794006,-0.173102468252182,-0.16183748841285706,0.6803163290023804
658c7690-8968-4e6f-854c-4875192787e4,9ad6aa91-cc65-468c-868e-81e05a072707,1762167957389400061,-1.451492,1.348495,-0.741959,-0.015625,-0.462402,0.907715,0.7253410733908096,-27.4219179296333,89.0149061991598,0.6938747763633728,-0.17334318161010742,-0.1617654711008072,0.6799425482749939
658c7690-8968-4e6f-854c-4875192787e4,9ad6aa91-cc65-468c-868e-81e05a072707,1762167957397408061,-2.182007,1.716614,-0.864029,-0.011719,-0.467285,0.905762,0.7338327096348597,-27.433601053005386,88.95631798239162,0.6942175030708313,-0.17354679107666016,-0.16169488430023193,0.6795574426651001
658c7690-8968-4e6f-854c-4875192787e4,9ad6aa91-cc65-468c-868e-81e05a072707,1762167957408059061,-2.853394,1.899719,-1.169205,-0.030762,-0.458008,0.907227,0.748252104111279,-27.450964648254285,88.91687811824505,0.6944466829299927,-0.1737932562828064,-0.16165103018283844,0.6792688369750977
658c7690-8968-4e6f-854c-4875192787e4,9ad6aa91-cc65-468c-868e-81e05a072707,1762167957418710061,-3.158569,1.899719,-1.10817,-0.013672,-0.467773,0.908691,0.7653364460759498,-27.473759142454448,88.90074680481534,0.6945335865020752,-0.17405496537685394,-0.16165855526924133,0.6791112422943115
658c7690-8968-4e6f-854c-4875192787e4,9ad6aa91-cc65-468c-868e-81e05a072707,1762167957429361061,-3.40271,1.594543,-0.986099,-0.025879,-0.466797,0.915039,0.776406758223117,-27.498893352317197,88.84182849049913,0.6948620676994324,-0.17435552179813385,-0.16165128350257874,0.6786998510360718
658c7690-8968-4e6f-854c-4875192787e4,9ad6aa91-cc65-468c-868e-81e05a072707,1762167957437392061,-3.646851,1.411438,-0.986099,-0.024414,-0.46875,0.90918,0.8064688266047833,-27.561039098785795,88.80983979288455,0.6950042843818665,-0.17495425045490265,-0.16178947687149048,0.6783673763275146
658c7690-8968-4e6f-854c-4875192787e4,9ad6aa91-cc65-468c-868e-81e05a072707,1762167957445426061,-3.831863,0.799179,-0.741959,-0.016602,-0.477051,0.910156,0.8136554252837265,-27.593722325623894,88.80974478461881,0.6949678063392639,-0.17519444227218628,-0.16193990409374237,0.6783069968223572
658c7690-8968-4e6f-854c-4875192787e4,9ad6aa91-cc65-468c-868e-81e05a072707,1762167957453460061,-4.076004,0.982285,-0.558853,-0.026855,-0.471191,0.911621,0.8284292336395634,-27.632140129484856,88.7550669451131,0.6952567100524902,-0.1755913645029068,-0.16199475526809692,0.677895188331604
658c7690-8968-4e6f-854c-4875192787e4,9ad6aa91-cc65-468c-868e-81e05a072707,1762167957461494061,-3.587723,0.677109,-0.192642,-0.020996,-0.478516,0.922852,0.8372157346250704,-27.665931437849473,88.67783396952545,0.6956769227981567,-0.1759568452835083,-0.16202351450920105,0.6773623824119568
658c7690-8968-4e6f-854c-4875192787e4,9ad6aa91-cc65-468c-868e-81e05a072707,1762167957472127061,-3.892899,0.860214,-0.009537,-0.024902,-0.477539,0.911621,0.8509515534562647,-27.69889212190346,88.62014961013124,0.6959894299507141,-0.17631900310516357,-0.16204693913459778,0.6769415140151978
658c7690-8968-4e6f-854c-4875192787e4,9ad6aa91-cc65-468c-868e-81e05a072707,1762167957482760061,-3.707886,0.923157,0.295639,-0.038574,-0.476562,0.916016,0.8696939122990108,-27.731382773215152,88.59346364704177,0.696126401424408,-0.1766640692949295,-0.16208462417125702,0.6767017245292664
658c7690-8968-4e6f-854c-4875192787e4,9ad6aa91-cc65-468c-868e-81e05a072707,1762167957493393061,-3.343582,0.310898,0.600815,-0.037109,-0.506836,0.902832,0.8820834768137698,-27.766013428648968,88.56119993990285,0.6962841153144836,-0.17699246108531952,-0.1621648222208023,0.6764345169067383
658c7690-8968-4e6f-854c-4875192787e4,9ad6aa91-cc65-468c-868e-81e05a072707,1762167957504049061,-3.219604,0.068665,0.66185,-0.01709,-0.490234,0.926758,0.8873625758723148,-27.798223950990256,88.52746242372045,0.6964438557624817,-0.17726637423038483,-0.1622714400291443,0.6761727929115295
658c7690-8968-4e6f-854c-4875192787e4,9ad6aa91-cc65-468c-868e-81e05a072707,1762167957514705061,-2.973557,0.310898,0.722885,-0.022461,-0.494629,0.903809,0.8990155119964092,-27.829939461396012,88.54582959305478,0.6963058114051819,-0.1775011122226715,-0.1624169498682022,0.6762185096740723
658c7690-8968-4e6f-854c-4875192787e4,9ad6aa91-cc65-468c-868e-81e05a072707,1762167957525361061,-3.28064,0.740051,0.600815,-0.018066,-0.471191,0.914062,0.9075171772907739,-27.855904432402465,88.54791714466876,0.6962677240371704,-0.17770549654960632,-0.1625223606824875,0.6761786937713623
658c7690-8968-4e6f-854c-4875192787e4,9ad6aa91-cc65-468c-868e-81e05a072707,1762167957536045061,-3.158569,0.434875,0.417709,-0.012695,-0.496582,0.912598,0.9194897690667715,-27.887669322269268,88.524974783348,0.6963737607002258,-0.17800092697143555,-0.16260217130184174,0.6759727001190186
658c7690-8968-4e6f-854c-4875192787e4,9ad6aa91-cc65-468c-868e-81e05a072707,1762167957546727061,-3.036499,0.25177,0.356674,-0.02832,-0.489746,0.906738,0.9233210876645822,-27.918315390712838,88.53964633696981,0.696247935295105,-0.17818818986415863,-0.16278322041034698,0.6760094165802002
658c7690-8968-4e6f-854c-4875192787e4,9ad6aa91-cc65-468c-868e-81e05a072707,1762167957557409061,-3.099442,0.436783,0.173569,-0.002441,-0.489746,0.910156,0.9296324134123833,-27.94661213175505,88.54068946222779,0.6962094306945801,-0.17839516699314117,-0.16291411221027374,0.6759630441665649
658c7690-8968-4e6f-854c-4875192787e4,9ad6aa91-cc65-468c-868e-81e05a072707,1762167957565413061,-3.099442,-0.177383,0.051498,-0.015137,-0.494629,0.92041,0.9300192492076954,-28.0040059412646,88.45810640595388,0.6966129541397095,-0.17886234819889069,-0.16312284767627716,0.6753733158111572
658c7690-8968-4e6f-854c-4875192787e4,9ad6aa91-cc65-468c-868e-81e05a072707,1762167957573417061,-2.61116,-0.356674,-0.070572,-0.01709,-0.494141,0.916016,0.923756207195172,-28.027781849900713,88.40386055748755,0.69688880443573,-0.17904667556285858,-0.16321688890457153,0.6750171184539795
658c7690-8968-4e6f-854c-4875192787e4,9ad6aa91-cc65-468c-868e-81e05a072707,1762167957581421061,-1.876831,-0.419617,-0.009537,-0.021484,-0.491699,0.904785,0.9221693938370116,-28.045363740653055,88.38686051584128,0.6969608664512634,-0.17916806042194366,-0.16330395638942719,0.6748894453048706
658c7690-8968-4e6f-854c-4875192787e4,9ad6aa91-cc65-468c-868e-81e05a072707,1762167957589425061,-1.998901,-0.724792,0.051498,-0.016113,-0.496582,0.913086,0.916606243974408,-28.064084308633234,88.36428382731987,0.697058379650116,-0.17928090691566467,-0.1634131819009781,0.6747323274612427
658c7690-8968-4e6f-854c-4875192787e4,9ad6aa91-cc65-468c-868e-81e05a072707,1762167957597426061,-1.693726,-0.480652,-0.192642,-0.023438,-0.48877,0.924316,0.9119566066631563,-28.082067459302078,88.3287963990988,0.6972342133522034,-0.17941313982009888,-0.16349223256111145,0.6744962930679321
658c7690-8968-4e6f-854c-4875192787e4,9ad6aa91-cc65-468c-868e-81e05a072707,1762167957605427061,-1.38855,-0.358582,-0.070572,-0.024414,-0.495117,0.912109,0.9125002976282185,-28.09557731465505,88.34662162469317,0.6971101760864258,-0.17947275936603546,-0.16359668970108032,0.674583375453949
658c7690-8968-4e6f-854c-4875192787e4,9ad6aa91-cc65-468c-868e-81e05a072707,1762167957613428061,-1.083374,-0.114441,-0.131607,-0.022461,-0.490234,0.914062,0.9133258866942056,-28.095252721322105,88.34426041389044,0.6971257328987122,-0.17947901785373688,-0.16358605027198792,0.674568235874176
658c7690-8968-4e6f-854c-4875192787e4,9ad6aa91-cc65-468c-868e-81e05a072707,1762167957621429061,-1.327515,-0.114441,-0.131607,-0.012695,-0.496582,0.913086,0.9148841952427129,-28.09675538089866,88.30326736861399,0.6973670125007629,-0.17955581843852997,-0.16352123022079468,0.674314022064209
658c7690-8968-4e6f-854c-4875192787e4,9ad6aa91-cc65-468c-868e-81e05a072707,1762167957632098061,-1.327515,0.1297,-0.131607,-0.027344,-0.481445,0.90918,0.9180447328469434,-28.095373075976667,88.32932475990884,0.6972202062606812,-0.1795288473367691,-0.16353465616703033,0.6744697690010071
658c7690-8968-4e6f-854c-4875192787e4,9ad6aa91-cc65-468c-868e-81e05a072707,1762167957642767061,-1.327515,0.1297,-0.070572,-0.012695,-0.493652,0.92041,0.9173586992236343,-28.098979479216762,88.36227749806454,0.6970199346542358,-0.17949962615966797,-0.1636117696762085,0.6746658086776733
658c7690-8968-4e6f-854c-4875192787e4,9ad6aa91-cc65-468c-868e-81e05a072707,1762167957653436061,-0.900269,-0.419617,0.234604,-0.020508,-0.489258,0.913086,0.9188343982870354,-28.100587970192322,88.32791819886992,0.6972219347953796,-0.1795670986175537,-0.1635584682226181,0.6744520664215088
658c7690-8968-4e6f-854c-4875192787e4,9ad6aa91-cc65-468c-868e-81e05a072707,1762167957661424061,-1.266479,0.434875,0.112534,-0.020996,-0.482422,0.924805,0.9204276876651819,-28.096961769143466,88.2778564795981,0.6975241303443909,-0.17962592840194702,-0.16344888508319855,0.6741504073143005
658c7690-8968-4e6f-854c-4875192787e4,9ad6aa91-cc65-468c-868e-81e05a072707,1762167957669412061,-0.597,0.677109,0.356674,0.005371,-0.483398,0.926269,0.9131421967910698,-28.094854351070275,88.21349074243885,0.6978954076766968,-0.1796620935201645,-0.16337989270687103,0.6737731099128723
658c7690-8968-4e6f-854c-4875192787e4,9ad6aa91-cc65-468c-868e-81e05a072707,1762167957677400061,-0.595093,0.740051,0.173569,-0.024902,-0.495117,0.926758,0.914204366432216,-28.094683000404864,88.18716762281876,0.698051929473877,-0.17970483005046844,-0.16333113610744476,0.6736113429069519
658c7690-8968-4e6f-854c-4875192787e4,9ad6aa91-cc65-468c-868e-81e05a072707,1762167957685388061,0.137329,0.495911,-0.436783,-0.010254,-0.494629,0.926269,0.9137872144137941,-28.095147138109354,88.15543159545952,0.6982371807098389,-0.17975041270256042,-0.16328664124011993,0.6734179854393005
658c7690-8968-4e6f-854c-4875192787e4,9ad6aa91-cc65-468c-868e-81e05a072707,1762167957696071061,0.501633,1.04332,-0.497818,-0.015625,-0.487305,0.917969,0.9103897115536599,-28.09379558647824,88.10924540976478,0.698505699634552,-0.17978805303573608,-0.163226917386055,0.6731438636779785
658c7690-8968-4e6f-854c-4875192787e4,9ad6aa91-cc65-468c-868e-81e05a072707,1762167957706754061,1.113892,0.556946,-0.802994,-0.005371,-0.499512,0.918945,0.9072649664822459,-28.086842486455165,88.11487079071442,0.6984784603118896,-0.1797194629907608,-0.16321377456188202,0.673193633556366
658c7690-8968-4e6f-854c-4875192787e4,9ad6aa91-cc65-468c-868e-81e05a072707,1762167957717437061,1.173019,0.677109,-1.596451,0.0,-0.49707,0.92334,0.8995174055542736,-28.07933885781258,88.1216130795495,0.6984388828277588,-0.17961877584457397,-0.16322730481624603,0.6732583045959473
658c7690-8968-4e6f-854c-4875192787e4,9ad6aa91-cc65-468c-868e-81e05a072707,1762167957725464061,1.907349,0.679016,-2.328873,-0.01709,-0.469238,0.922852,0.8991170835475792,-28.059666403919582,88.06901227724535,0.6987763047218323,-0.17957183718681335,-0.16303128004074097,0.6729680895805359
658c7690-8968-4e6f-854c-4875192787e4,9ad6aa91-cc65-468c-868e-81e05a072707,1762167957733492061,1.787186,0.982285,-2.511978,-0.016113,-0.474121,0.91748,0.8946453905821746,-28.037811602642023,88.01291447646449,0.6991315484046936,-0.1794925481081009,-0.1628418266773224,0.672666072845459
658c7690-8968-4e6f-854c-4875192787e4,9ad6aa91-cc65-468c-868e-81e05a072707,1762167957741520061,1.661301,0.494003,-2.084732,-0.000977,-0.473633,0.919922,0.8931215268528259,-28.018239075287106,87.97027912815038,0.6994084715843201,-0.1794251799583435,-0.16266901791095734,0.6724379062652588
658c7690-8968-4e6f-854c-4875192787e4,9ad6aa91-cc65-468c-868e-81e05a072707,1762167957757513061,1.968384,0.679016,-2.145767,-0.016602,-0.473633,0.902344,0.8842619071724643,-27.977336872854643,87.8243501522071,0.7003120183944702,-0.17933125793933868,-0.16225385665893555,0.6716222763061523
658c7690-8968-4e6f-854c-4875192787e4,9ad6aa91-cc65-468c-868e-81e05a072707,1762167957765481061,1.724243,1.045227,-2.084732,-0.024902,-0.467773,0.911621,0.8853386836128527,-27.957912021799267,87.76155586953907,0.700710117816925,-0.17930811643600464,-0.16203473508358002,0.6712660193443298
658c7690-8968-4e6f-854c-4875192787e4,9ad6aa91-cc65-468c-868e-81e05a072707,1762167957773449061,1.663208,0.923157,-1.901627,-0.016602,-0.479492,0.905762,0.89234804086918,-27.941054403702623,87.70668873269484,0.7010661959648132,-0.1793239712715149,-0.1618068814277649,0.67094486951828
658c7690-8968-4e6f-854c-4875192787e4,9ad6aa91-cc65-468c-868e-81e05a072707,1762167957781417061,1.113892,0.923157,-1.535416,-0.022461,-0.478027,0.908691,0.8992624000146271,-27.931154856854643,87.65434561164386,0.7013969421386719,-0.1793779581785202,-0.1616244614124298,0.6706286668777466
658c7690-8968-4e6f-854c-4875192787e4,9ad6aa91-cc65-468c-868e-81e05a072707,1762167957792077061,0.928879,0.799179,-1.047134,-0.030273,-0.471191,0.904785,0.9089388344121639,-27.91855195464288,87.61203275586097,0.7016767263412476,-0.17941737174987793,-0.1614249348640442,0.6703733801841736
658c7690-8968-4e6f-854c-4875192787e4,9ad6aa91-cc65-468c-868e-81e05a072707,1762167957802737061,0.745773,0.982285,-0.497818,-0.023438,-0.474121,0.904297,0.9140633547773048,-27.91466490157137,87.61261486376284,0.7016862630844116,-0.17942281067371368,-0.1613716334104538,0.6703748106956482
658c7690-8968-4e6f-854c-4875192787e4,9ad6aa91-cc65-468c-868e-81e05a072707,1762167957813397061,0.62561,1.228333,-0.192642,-0.026367,-0.474121,0.913574,0.9276397339431703,-27.907253401468576,87.66363469645671,0.7014177441596985,-0.1793852150440216,-0.16132484376430511,0.6706770658493042
658c7690-8968-4e6f-854c-4875192787e4,9ad6aa91-cc65-468c-868e-81e05a072707,1762167957824044061,-0.228882,0.617981,0.53978,-0.028809,-0.475098,0.896973,0.9336050345965093,-27.905690280999526,87.63026042244088,0.7016237378120422,-0.17945757508277893,-0.16122688353061676,0.6704657077789307
658c7690-8968-4e6f-854c-4875192787e4,9ad6aa91-cc65-468c-868e-81e05a072707,1762167957834692061,-0.045776,0.556946,1.211166,-0.016602,-0.477539,0.90625,0.9401694648898188,-27.906542435602706,87.56971959156607,0.7019858360290527,-0.17958630621433258,-0.16109684109687805,0.6700834035873413
658c7690-8968-4e6f-854c-4875192787e4,9ad6aa91-cc65-468c-868e-81e05a072707,1762167957845340061,-0.289917,0.25177,1.455307,-0.026855,-0.469727,0.892578,0.9475693850416491,-27.90480245454205,87.49219779213188,0.7024519443511963,-0.17972786724567413,-0.16091974079608917,0.6695993542671204
658c7690-8968-4e6f-854c-4875192787e4,9ad6aa91-cc65-468c-868e-81e05a072707,1762167957853361061,-0.350952,-0.236511,1.760483,-0.022461,-0.462402,0.901367,0.9672835854740063,-27.907095010912457,87.41234363228334,0.7029426693916321,-0.17996907234191895,-0.16068696975708008,0.6690753102302551
658c7690-8968-4e6f-854c-4875192787e4,9ad6aa91-cc65-468c-868e-81e05a072707,1762167957861381061,-0.963211,-0.051498,1.699448,-0.012207,-0.464355,0.893066,0.9758637009111154,-27.908224740008038,87.3896059776187,0.7030857801437378,-0.18005794286727905,-0.16060523688793182,0.668920636177063
658c7690-8968-4e6f-854c-4875192787e4,9ad6aa91-cc65-468c-868e-81e05a072707,1762167957869401061,-0.839233,0.068665,1.638412,-0.013672,-0.47998,0.919922,0.9816258563146453,-27.910147541066177,87.39903022354422,0.7030360102653503,-0.18009012937545776,-0.16059596836566925,0.6689664721488953
658c7690-8968-4e6f-854c-4875192787e4,9ad6aa91-cc65-468c-868e-81e05a072707,1762167957877421061,-0.961304,-0.236511,1.272202,-0.001465,-0.475586,0.90918,0.9800722134935979,-27.913028724674973,87.44994993870034,0.702732264995575,-0.18002726137638092,-0.1607024073600769,0.6692769527435303
658c7690-8968-4e6f-854c-4875192787e4,9ad6aa91-cc65-468c-868e-81e05a072707,1762167957888089061,-0.963211,-0.299454,0.844955,-0.013184,-0.48584,0.909668,0.9801337838658566,-27.910935756541452,87.42490400041707,0.7028816938400269,-0.18004997074604034,-0.16065040230751038,0.6691263318061829
658c7690-8968-4e6f-854c-4875192787e4,9ad6aa91-cc65-468c-868e-81e05a072707,1762167957898757061,-1.142502,0.494003,0.967026,-0.018066,-0.458496,0.910644,0.9863834370866721,-27.91069795442924,87.41522499846184,0.7029473185539246,-0.18009857833385468,-0.16059546172618866,0.6690574884414673
658c7690-8968-4e6f-854c-4875192787e4,9ad6aa91-cc65-468c-868e-81e05a072707,1762167957909425061,-1.083374,0.1297,0.417709,-0.018066,-0.476562,0.910156,0.9856289003918087,-27.90965520272475,87.42559648673675,0.702887237071991,-0.18007326126098633,-0.16061027348041534,0.6691238880157471
658c7690-8968-4e6f-854c-4875192787e4,9ad6aa91-cc65-468c-868e-81e05a072707,1762167957920112061,-1.51062,0.068665,-0.436783,-0.016113,-0.483887,0.913086,0.983881704389016,-27.923448782277855,87.39585109542163,0.7030381560325623,-0.18018902838230133,-0.16065512597560883,0.6689233779907227
658c7690-8968-4e6f-854c-4875192787e4,9ad6aa91-cc65-468c-868e-81e05a072707,1762167957930800061,-1.573563,-0.299454,-0.680923,-0.015625,-0.489258,0.90918,0.9831361063115344,-27.938211264416534,87.36030881866994,0.7032228112220764,-0.1803247183561325,-0.1606903374195099,0.6686842441558838
658c7690-8968-4e6f-854c-4875192787e4,9ad6aa91-cc65-468c-868e-81e05a072707,1762167957941488061,-1.38855,-0.236511,-0.680923,-0.027344,-0.494141,0.916992,0.9767784205807483,-27.95414911416649,87.30360617004729,0.703521192073822,-0.18046456575393677,-0.16073349118232727,0.6683222651481628
658c7690-8968-4e6f-854c-4875192787e4,9ad6aa91-cc65-468c-868e-81e05a072707,1762167957952127061,-1.38855,-0.358582,-0.925064,-0.03125,-0.497559,0.920898,0.9709740065514443,-27.981392116711213,87.26338844988557,0.7037073373794556,-0.18065375089645386,-0.16086532175540924,0.6680434346199036
658c7690-8968-4e6f-854c-4875192787e4,9ad6aa91-cc65-468c-868e-81e05a072707,1762167957962765061,-1.083374,-0.541687,-0.680923,-0.018066,-0.486816,0.915039,0.9684414855403678,-27.98470261673579,87.23558825603388,0.7038609385490417,-0.18069826066493988,-0.1608564257621765,0.6678717136383057
658c7690-8968-4e6f-854c-4875192787e4,9ad6aa91-cc65-468c-868e-81e05a072707,1762167957973403061,-1.022339,-0.785828,-0.925064,-0.023438,-0.495117,0.920898,0.9667976503221472,-27.989242310323856,87.22557236854881,0.7039102911949158,-0.18073052167892456,-0.1608773022890091,0.6678059101104736
658c7690-8968-4e6f-854c-4875192787e4,9ad6aa91-cc65-468c-868e-81e05a072707,1762167957981394061,-0.534058,-0.358582,-0.497818,-0.026367,-0.492676,0.92041,0.9721365640158517,-27.989667906580294,87.25129432671113,0.7037672400474548,-0.18072813749313354,-0.16088756918907166,0.6679548025131226
658c7690-8968-4e6f-854c-4875192787e4,9ad6aa91-cc65-468c-868e-81e05a072707,1762167957989384061,-0.411987,-0.358582,-0.070572,-0.022949,-0.486328,0.916992,0.9770702020963639,-27.993179461163784,87.20638543800042,0.7040306925773621,-0.18084140121936798,-0.16080696880817413,0.6676658987998962
658c7690-8968-4e6f-854c-4875192787e4,9ad6aa91-cc65-468c-868e-81e05a072707,1762167957997374061,-0.291824,-0.116348,-0.070572,-0.021973,-0.507812,0.919922,0.9799134645466115,-27.990104735952954,87.1514797656214,0.7043590545654297,-0.18091616034507751,-0.16068483889102936,0.6673286557197571
658c7690-8968-4e6f-854c-4875192787e4,9ad6aa91-cc65-468c-868e-81e05a072707,1762167958005364061,0.137329,-0.358582,-0.131607,-0.024414,-0.49707,0.92041,0.9837974500686194,-27.995193956533626,87.13486746126577,0.704453706741333,-0.1809932291507721,-0.16066449880599976,0.667212724685669
658c7690-8968-4e6f-854c-4875192787e4,9ad6aa91-cc65-468c-868e-81e05a072707,1762167958016053061,0.013351,-0.482559,0.234604,-0.020508,-0.49707,0.92041,0.9869837273800108,-27.998276460418886,87.11488757014428,0.704569935798645,-0.18105866014957428,-0.16063137352466583,0.6670802235603333
658c7690-8968-4e6f-854c-4875192787e4,9ad6aa91-cc65-468c-868e-81e05a072707,1762167958026742061,0.137329,-0.602722,0.295639,-0.023438,-0.499023,0.929687,0.9909598355724366,-28.001847117287035,87.08395964454242,0.7047502398490906,-0.1811470240354538,-0.1605789214372635,0.666878342628479
658c7690-8968-4e6f-854c-4875192787e4,9ad6aa91-cc65-468c-868e-81e05a072707,1762167958037431061,0.501633,-0.53978,0.295639,-0.019531,-0.48291,0.916016,0.9938803339760498,-28.003067938229247,87.05592719959223,0.7049156427383423,-0.18121075630187988,-0.16052377223968506,0.6666995286941528
658c7690-8968-4e6f-854c-4875192787e4,9ad6aa91-cc65-468c-868e-81e05a072707,1762167958048100061,1.113892,-0.907898,0.112534,-0.023437,-0.496094,0.926269,0.9924954397573473,-27.98875982007128,87.03475700164635,0.7050580382347107,-0.18114468455314636,-0.16041520237922668,0.6665930151939392
658c7690-8968-4e6f-854c-4875192787e4,9ad6aa91-cc65-468c-868e-81e05a072707,1762167958058769061,1.052856,-0.724792,-0.070572,-0.020508,-0.492187,0.92334,0.9919642420080099,-27.98066369004495,86.9831392922496,0.7053694725036621,-0.1811642199754715,-0.16028957068920135,0.6662883162498474
658c7690-8968-4e6f-854c-4875192787e4,9ad6aa91-cc65-468c-868e-81e05a072707,1762167958069438061,1.907349,-0.053406,-0.253677,-0.008301,-0.478516,0.91748,0.9885653411751905,-27.961720995971326,86.92156178779301,0.7057507038116455,-0.18111439049243927,-0.16010254621505737,0.6659430265426636
658c7690-8968-4e6f-854c-4875192787e4,9ad6aa91-cc65-468c-868e-81e05a072707,1762167958080142061,2.5177,-0.419617,-0.558853,-0.018555,-0.487305,0.925781,0.9781615647876949,-27.94212158631306,86.94881528892344,0.7056067585945129,-0.1808956414461136,-0.1600952297449112,0.6661567091941833
658c7690-8968-4e6f-854c-4875192787e4,9ad6aa91-cc65-468c-868e-81e05a072707,1762167958090845061,2.700806,-0.358582,-1.10817,-0.028809,-0.458984,0.918457,0.974042490144952,-27.916413388748285,86.9482530909595,0.7056422829627991,-0.18071483075618744,-0.15996958315372467,0.6661982536315918
658c7690-8968-4e6f-854c-4875192787e4,9ad6aa91-cc65-468c-868e-81e05a072707,1762167958101548061,2.761841,-0.541687,-0.741959,-0.023926,-0.473145,0.905762,0.9682633069512845,-27.887292114086097,86.88774594039185,0.706028938293457,-0.18058699369430542,-0.15973977744579315,0.6658782958984375
658c7690-8968-4e6f-854c-4875192787e4,9ad6aa91-cc65-468c-868e-81e05a072707,1762167958109533061,2.5177,-1.091003,-0.558853,-0.021973,-0.464844,0.909668,0.9577174845039609,-27.83153416118407,86.81642855167452,0.7065109014511108,-0.18028275668621063,-0.1593671292066574,0.6655386090278625
658c7690-8968-4e6f-854c-4875192787e4,9ad6aa91-cc65-468c-868e-81e05a072707,1762167958117520061,2.456665,-1.091003,-0.619888,-0.022461,-0.463379,0.915527,0.9484318317956069,-27.803559868173043,86.76513658841583,0.7068371176719666,-0.1801283061504364,-0.15918058156967163,0.6652785539627075
658c7690-8968-4e6f-854c-4875192787e4,9ad6aa91-cc65-468c-868e-81e05a072707,1762167958125507061,2.090454,-0.907898,-0.497818,-0.022461,-0.474609,0.921875,0.9417442533713493,-27.77681296778665,86.71564452255362,0.7071545720100403,-0.17999382317066193,-0.15898814797401428,0.6650235056877136
658c7690-8968-4e6f-854c-4875192787e4,9ad6aa91-cc65-468c-868e-81e05a072707,1762167958133494061,2.334595,-1.029968,-0.375748,-0.012207,-0.46875,0.907227,0.9303128764393833,-27.753606060751945,86.66600089292133,0.7074609994888306,-0.1798536479473114,-0.15884552896022797,0.6647695302963257
658c7690-8968-4e6f-854c-4875192787e4,9ad6aa91-cc65-468c-868e-81e05a072707,1762167958144129061,2.212524,-0.602722,-0.619888,-0.022461,-0.461914,0.900879,0.9255371029002799,-27.730956231342574,86.65886341349166,0.7075291872024536,-0.17969653010368347,-0.1587318629026413,0.6647665500640869
658c7690-8968-4e6f-854c-4875192787e4,9ad6aa91-cc65-468c-868e-81e05a072707,1762167958154764061,1.53923,-0.665665,-0.314713,-0.012207,-0.463379,0.909668,0.9192183132600716,-27.712727945043895,86.63697606365443,0.7076742649078369,-0.17957808077335358,-0.1586303859949112,0.6646682024002075
658c7690-8968-4e6f-854c-4875192787e4,9ad6aa91-cc65-468c-868e-81e05a072707,1762167958165399061,1.541138,-0.602722,-0.131607,-0.016602,-0.460449,0.907227,0.9202211585981296,-27.699129728426605,86.58888952028795,0.7079745531082153,-0.17956674098968506,-0.15846964716911316,0.6643897891044617
658c7690-8968-4e6f-854c-4875192787e4,9ad6aa91-cc65-468c-868e-81e05a072707,1762167958176067061,0.869751,-0.724792,0.234604,-0.020508,-0.462891,0.900879,0.925249563681838,-27.696340766783425,86.62257914477289,0.7077902555465698,-0.17953215539455414,-0.1584751307964325,0.6645941138267517
658c7690-8968-4e6f-854c-4875192787e4,9ad6aa91-cc65-468c-868e-81e05a072707,1762167958186734061,0.442505,-0.968933,0.478745,-0.023926,-0.467773,0.897949,0.9298093265324848,-27.69049006292862,86.63684625231404,0.7077224254608154,-0.17950287461280823,-0.15843524038791656,0.6646837592124939
658c7690-8968-4e6f-854c-4875192787e4,9ad6aa91-cc65-468c-868e-81e05a072707,1762167958197401061,0.076294,-1.029968,0.967026,-0.026855,-0.465332,0.904785,0.9362505071714013,-27.68602834772277,86.60970970066634,0.7078952789306641,-0.17955029010772705,-0.15832695364952087,0.6645126342773438
658c7690-8968-4e6f-854c-4875192787e4,9ad6aa91-cc65-468c-868e-81e05a072707,1762167958208094061,-0.108719,-1.459122,1.272202,-0.01123,-0.469727,0.901855,0.9293684745901043,-27.68153180836404,86.56957096721032,0.708125114440918,-0.17953816056251526,-0.1582804024219513,0.6642820835113525
658c7690-8968-4e6f-854c-4875192787e4,9ad6aa91-cc65-468c-868e-81e05a072707,1762167958218789061,-0.413895,-1.459122,1.516342,-0.024414,-0.481934,0.914551,0.9279874732173904,-27.687971173029094,86.55311727865009,0.7082090973854065,-0.17959251999855042,-0.15830063819885254,0.6641730666160583
658c7690-8968-4e6f-854c-4875192787e4,9ad6aa91-cc65-468c-868e-81e05a072707,1762167958229484061,-0.839233,-1.76239,1.821518,-0.026855,-0.481934,0.912598,0.9250912747624459,-27.695394293879495,86.53966883125565,0.7082720994949341,-0.1796400249004364,-0.1583406627178192,0.6640834808349609
658c7690-8968-4e6f-854c-4875192787e4,9ad6aa91-cc65-468c-868e-81e05a072707,1762167958237447061,-0.900269,-1.213074,2.004623,-0.027344,-0.477051,0.90918,0.9153713550926734,-27.700847595853276,86.52397014715224,0.7083415985107422,-0.17963896691799164,-0.15840786695480347,0.6639936566352844
658c7690-8968-4e6f-854c-4875192787e4,9ad6aa91-cc65-468c-868e-81e05a072707,1762167958245413061,-0.900269,-1.213074,2.309799,-0.004883,-0.480957,0.921875,0.9171982901221218,-27.70634310481424,86.56123646973761,0.7081200480461121,-0.17963185906410217,-0.1584869772195816,0.6642130017280579
658c7690-8968-4e6f-854c-4875192787e4,9ad6aa91-cc65-468c-868e-81e05a072707,1762167958253379061,-1.022339,-1.091003,1.699448,-0.016602,-0.467773,0.900879,0.9156002025799774,-27.710079285725527,86.58849852887693,0.7079542875289917,-0.17960788309574127,-0.1585613340139389,0.6643784046173096
658c7690-8968-4e6f-854c-4875192787e4,9ad6aa91-cc65-468c-868e-81e05a072707,1762167958261345061,-1.451492,-0.787735,1.699448,-0.000977,-0.478027,0.895508,0.9135943459601965,-27.718676633553034,86.59121980341438,0.7079230546951294,-0.17964540421962738,-0.15862804651260376,0.6643856167793274
658c7690-8968-4e6f-854c-4875192787e4,9ad6aa91-cc65-468c-868e-81e05a072707,1762167958272033061,-1.451492,-0.60463,1.760483,-0.007324,-0.476562,0.907715,0.9100168694339993,-27.73415810358965,86.62195142253357,0.7077170610427856,-0.179677352309227,-0.15878847241401672,0.6645581722259521
658c7690-8968-4e6f-854c-4875192787e4,9ad6aa91-cc65-468c-868e-81e05a072707,1762167958282721061,-1.51062,-0.663757,0.967026,-0.020996,-0.481934,0.904785,0.908658309910096,-27.745803629443493,86.65580256343046,0.7075016498565674,-0.17969417572021484,-0.15891776978969574,0.6647521257400513
658c7690-8968-4e6f-854c-4875192787e4,9ad6aa91-cc65-468c-868e-81e05a072707,1762167958293409061,-1.998901,-0.785828,1.089096,0.001465,-0.470703,0.899902,0.9084631123910017,-27.75967500831728,86.64484763577123,0.7075444459915161,-0.1797935664653778,-0.15898258984088898,0.6646642088890076
658c7690-8968-4e6f-854c-4875192787e4,9ad6aa91-cc65-468c-868e-81e05a072707,1762167958304062061,-1.754761,-0.724792,0.173569,0.002441,-0.478027,0.915527,0.8868145752782638,-27.78905206912944,86.55940850109477,0.7079663276672363,-0.17996741831302643,-0.15915320813655853,0.6641269326210022
658c7690-8968-4e6f-854c-4875192787e4,9ad6aa91-cc65-468c-868e-81e05a072707,1762167958314716061,-2.182007,-0.968933,-0.131607,0.000977,-0.480469,0.905273,0.8722006513123542,-27.809056701121754,86.55356709057378,0.707950234413147,-0.1800139844417572,-0.15935072302818298,0.6640841364860535
658c7690-8968-4e6f-854c-4875192787e4,9ad6aa91-cc65-468c-868e-81e05a072707,1762167958325370061,-2.30217,-1.153946,-0.009537,-0.008301,-0.474121,0.911621,0.8603266583565722,-27.825754631955814,86.55173980521853,0.7079195380210876,-0.18005049228668213,-0.15951836109161377,0.6640667915344238
658c7690-8968-4e6f-854c-4875192787e4,9ad6aa91-cc65-468c-868e-81e05a072707,1762167958333398061,-1.571655,-0.419617,-0.864029,-0.020996,-0.469238,0.935059,0.847608739808012,-27.83705666260079,86.53794943648136,0.7079649567604065,-0.1800655871629715,-0.15964101254940033,0.6639847755432129
658c7690-8968-4e6f-854c-4875192787e4,9ad6aa91-cc65-468c-868e-81e05a072707,1762167958341427061,-0.963211,-0.299454,-1.10817,-0.006348,-0.478516,0.927734,0.8397738009619572,-27.843413015165797,86.55935791906336,0.7078205347061157,-0.1800294667482376,-0.1597600281238556,0.6641199588775635
658c7690-8968-4e6f-854c-4875192787e4,9ad6aa91-cc65-468c-868e-81e05a072707,1762167958349456061,-0.717163,-0.236511,-1.47438,-0.023438,-0.474609,0.930176,0.8306358917056186,-27.848650664159333,86.58246041205635,0.7076660990715027,-0.17997652292251587,-0.15988323092460632,0.664269208908081
658c7690-8968-4e6f-854c-4875192787e4,9ad6aa91-cc65-468c-868e-81e05a072707,1762167958357485061,-0.47493,-0.177383,-1.23024,-0.001953,-0.479004,0.916504,0.824770697034368,-27.851160122215923,86.54318680241175,0.7078818082809448,-0.1800127625465393,-0.159872367978096,0.6640321612358093
658c7690-8968-4e6f-854c-4875192787e4,9ad6aa91-cc65-468c-868e-81e05a072707,1762167958368173061,-0.411987,-0.358582,-0.986099,-0.016602,-0.478516,0.917969,0.8225091283138484,-27.850042250004105,86.50037842000138,0.7081283330917358,-0.1800524890422821,-0.1598125845193863,0.6637728810310364
658c7690-8968-4e6f-854c-4875192787e4,9ad6aa91-cc65-468c-868e-81e05a072707,1762167958378861061,-0.228882,-0.297546,-0.986099,-0.018555,-0.467285,0.913086,0.8247637477985628,-27.847441771290637,86.44993203669686,0.7084274888038635,-0.1801198571920395,-0.15970425307750702,0.6634613871574402
658c7690-8968-4e6f-854c-4875192787e4,9ad6aa91-cc65-468c-868e-81e05a072707,1762167958389549061,-0.291824,-0.116348,-0.864029,-0.027832,-0.489258,0.918457,0.8283771791861231,-27.842701418969526,86.41234755205762,0.7086571455001831,-0.1801639348268509,-0.1595952808856964,0.663230299949646
658c7690-8968-4e6f-854c-4875192787e4,9ad6aa91-cc65-468c-868e-81e05a072707,1762167958400155061,-0.350952,-0.236511,-0.925064,-0.021973,-0.483398,0.92041,0.8341434130853825,-27.840803038649952,86.34666544085333,0.7090480327606201,-0.1802770346403122,-0.15944528579711914,0.6628177165985107
658c7690-8968-4e6f-854c-4875192787e4,9ad6aa91-cc65-468c-868e-81e05a072707,1762167958410760061,-0.47493,-0.116348,-0.436783,-0.019531,-0.473145,0.910644,0.8356607054492211,-27.83778635558181,86.33820269974684,0.7091035842895508,-0.1802789717912674,-0.15940506756305695,0.6627674698829651
658c7690-8968-4e6f-854c-4875192787e4,9ad6aa91-cc65-468c-868e-81e05a072707,1762167958421365061,-0.597,0.005722,-0.314713,-0.018555,-0.484375,0.91748,0.8387864795375491,-27.835204770916906,86.33358971647277,0.7091384530067444,-0.18028755486011505,-0.15936347842216492,0.6627377867698669
658c7690-8968-4e6f-854c-4875192787e4,9ad6aa91-cc65-468c-868e-81e05a072707,1762167958429376061,-0.47493,-0.177383,-0.497818,-0.013184,-0.459473,0.911621,0.8394792700094398,-27.832454001534604,86.2867168264235,0.709414541721344,-0.1803397536277771,-0.15926946699619293,0.6624506711959839
658c7690-8968-4e6f-854c-4875192787e4,9ad6aa91-cc65-468c-868e-81e05a072707,1762167958437387061,-0.411987,-0.358582,-0.314713,-0.026855,-0.460938,0.919434,0.8435961192046896,-27.829027789761753,86.26857458644125,0.709530234336853,-0.1803676187992096,-0.15919554233551025,0.6623369455337524
658c7690-8968-4e6f-854c-4875192787e4,9ad6aa91-cc65-468c-868e-81e05a072707,1762167958445398061,-0.656128,-0.602722,0.051498,-0.025391,-0.475586,0.905273,0.848803581450034,-27.822531332443354,86.29721353435993,0.7093815803527832,-0.18031786382198334,-0.15917067229747772,0.6625156402587891
658c7690-8968-4e6f-854c-4875192787e4,9ad6aa91-cc65-468c-868e-81e05a072707,1762167958461405061,-0.595093,-1.029968,0.234604,-0.02832,-0.48877,0.918945,0.8628131213554174,-27.818577929424947,86.22436081659792,0.7098279595375061,-0.18047556281089783,-0.15894629061222076,0.6620482802391052
658c7690-8968-4e6f-854c-4875192787e4,9ad6aa91-cc65-468c-868e-81e05a072707,1762167958469401061,-0.411987,-1.335144,0.173569,-0.024902,-0.479004,0.919922,0.8618536184647504,-27.81942307608042,86.19007864397527,0.7100234031677246,-0.18052278459072113,-0.15890313684940338,0.6618361473083496
658c7690-8968-4e6f-854c-4875192787e4,9ad6aa91-cc65-468c-868e-81e05a072707,1762167958477397061,-0.47493,-1.886368,0.417709,-0.026855,-0.46875,0.920898,0.8502506585284112,-27.820346854438032,86.17643410998387,0.7100847363471985,-0.18048040568828583,-0.15895889699459076,0.6617684960365295
658c7690-8968-4e6f-854c-4875192787e4,9ad6aa91-cc65-468c-868e-81e05a072707,1762167958485393061,-0.47493,-1.764297,0.722885,-0.019531,-0.485352,0.916992,0.8424884767376287,-27.819007062103257,86.16852629654433,0.7101216316223145,-0.18043826520442963,-0.15898677706718445,0.6617337465286255
658c7690-8968-4e6f-854c-4875192787e4,9ad6aa91-cc65-468c-868e-81e05a072707,1762167958496180061,-0.230789,-2.130508,1.150131,-0.012207,-0.486328,0.921387,0.8325352847890749,-27.817831054531023,86.12477181506264,0.7103621959686279,-0.1804342418909073,-0.15897275507450104,0.6614799499511719
658c7690-8968-4e6f-854c-4875192787e4,9ad6aa91-cc65-468c-868e-81e05a072707,1762167958506967061,-0.350952,-2.006531,1.272202,-0.019043,-0.476074,0.905273,0.8227813519877204,-27.821097156414442,86.09835822374542,0.7104962468147278,-0.18043477833271027,-0.15901055932044983,0.6613267064094543
658c7690-8968-4e6f-854c-4875192787e4,9ad6aa91-cc65-468c-868e-81e05a072707,1762167958517754061,0.076294,-2.067566,1.272202,-0.029297,-0.480469,0.906738,0.8139573462064498,-27.820098293599894,86.10406443855045,0.7104525566101074,-0.1803697645664215,-0.15906846523284912,0.6613774299621582
658c7690-8968-4e6f-854c-4875192787e4,9ad6aa91-cc65-468c-868e-81e05a072707,1762167958525743061,-0.597,-1.947403,1.516342,-0.004395,-0.487793,0.908691,0.7998867105626588,-27.819291510279538,86.07214414147923,0.7106184363365173,-0.1803278774023056,-0.15910080075263977,0.6612029075622559
658c7690-8968-4e6f-854c-4875192787e4,9ad6aa91-cc65-468c-868e-81e05a072707,1762167958533732061,-0.228882,-1.88446,1.455307,-0.008789,-0.487305,0.920898,0.7864524241959218,-27.824176501860983,86.06908187632187,0.7106101512908936,-0.18028481304645538,-0.15920758247375488,0.66119784116745
658c7690-8968-4e6f-854c-4875192787e4,9ad6aa91-cc65-468c-868e-81e05a072707,1762167958541721061,0.013351,-2.130508,1.272202,-0.010742,-0.474609,0.901367,0.7729671979075359,-27.824009050204634,86.1140147226233,0.7103323340415955,-0.18014349043369293,-0.1593608856201172,0.6614978909492493
658c7690-8968-4e6f-854c-4875192787e4,9ad6aa91-cc65-468c-868e-81e05a072707,1762167958549710061,0.257492,-1.642227,1.577377,-0.011719,-0.474121,0.915039,0.7609838815870974,-27.822447853732488,86.09909898039881,0.710404098033905,-0.1800854206085205,-0.15940268337726593,0.6614265441894531
658c7690-8968-4e6f-854c-4875192787e4,9ad6aa91-cc65-468c-868e-81e05a072707,1762167958560272061,0.196457,-2.130508,1.333237,0.001465,-0.479492,0.913574,0.7502644986568353,-27.817037370321632,86.07790243279027,0.7105196118354797,-0.18001960217952728,-0.15940450131893158,0.66131991147995
658c7690-8968-4e6f-854c-4875192787e4,9ad6aa91-cc65-468c-868e-81e05a072707,1762167958570834061,0.501633,-1.947403,1.150131,-0.006836,-0.489258,0.916504,0.7355972223111511,-27.813419120419418,86.06604984160708,0.7105730175971985,-0.17992907762527466,-0.15945588052272797,0.661274790763855
658c7690-8968-4e6f-854c-4875192787e4,9ad6aa91-cc65-468c-868e-81e05a072707,1762167958581396061,0.442505,-1.64032,0.905991,-0.001465,-0.478027,0.918457,0.722316737405425,-27.812067520973756,86.05172122690925,0.710639238357544,-0.1798640340566635,-0.15950791537761688,0.6612087488174438
658c7690-8968-4e6f-854c-4875192787e4,9ad6aa91-cc65-468c-868e-81e05a072707,1762167958592139061,0.38147,-1.579285,1.028061,-0.001465,-0.479492,0.916016,0.6941086265223223,-27.799589599730673,85.99950036585113,0.7109199166297913,-0.17969682812690735,-0.1595287322998047,0.6609473824501038
658c7690-8968-4e6f-854c-4875192787e4,9ad6aa91-cc65-468c-868e-81e05a072707,1762167958602884061,0.259399,-1.701355,0.78392,-0.001465,-0.477539,0.912598,0.6799501976698564,-27.795328303090805,85.99803685201373,0.7109150290489197,-0.1795908361673355,-0.15958961844444275,0.6609667539596558
658c7690-8968-4e6f-854c-4875192787e4,9ad6aa91-cc65-468c-868e-81e05a072707,1762167958613629061,0.259399,-1.213074,0.356674,-0.013184,-0.461914,0.916992,0.6724095173785105,-27.788769505513706,86.03996846749268,0.7106724381446838,-0.17944835126399994,-0.159664124250412,0.6612482666969299
658c7690-8968-4e6f-854c-4875192787e4,9ad6aa91-cc65-468c-868e-81e05a072707,1762167958621569061,0.684738,-1.092911,0.173569,-0.006836,-0.480469,0.917969,0.6616546449014282,-27.783174706745086,86.00530110962788,0.71086585521698,-0.1793999969959259,-0.15964417159557343,0.661058247089386
658c7690-8968-4e6f-854c-4875192787e4,9ad6aa91-cc65-468c-868e-81e05a072707,1762167958629510061,0.320435,-0.785828,-0.009537,-0.010742,-0.493164,0.917969,0.6634323224558256,-27.782405024754237,85.96382872152282,0.7111086845397949,-0.1794632524251938,-0.15956375002861023,0.6607992649078369
658c7690-8968-4e6f-854c-4875192787e4,9ad6aa91-cc65-468c-868e-81e05a072707,1762167958637451061,0.379562,-0.665665,-0.009537,-0.003418,-0.466797,0.911621,0.6630100073256271,-27.785627668745818,85.9707755449141,0.7110632061958313,-0.17947107553482056,-0.15959589183330536,0.6608383655548096
658c7690-8968-4e6f-854c-4875192787e4,9ad6aa91-cc65-468c-868e-81e05a072707,1762167958645392061,0.379562,-0.482559,-0.497818,-0.006836,-0.466797,0.914551,0.6591419236272672,-27.780494548093053,85.96948054914037,0.7110729813575745,-0.17941881716251373,-0.15958817303180695,0.6608438491821289
658c7690-8968-4e6f-854c-4875192787e4,9ad6aa91-cc65-468c-868e-81e05a072707,1762167958656070061,0.320435,-0.114441,-0.131607,-0.013184,-0.469238,0.916504,0.6564948189595526,-27.77351159813161,85.95016008718594,0.7111911773681641,-0.17938722670078278,-0.15953396260738373,0.6607383489608765
658c7690-8968-4e6f-854c-4875192787e4,9ad6aa91-cc65-468c-868e-81e05a072707,1762167958666748061,0.442505,-0.114441,0.112534,-0.00293,-0.460938,0.924805,0.6587890998333245,-27.770534553236924,85.89998606057767,0.7114880681037903,-0.1794518679380417,-0.15942394733428955,0.6604275703430176
658c7690-8968-4e6f-854c-4875192787e4,9ad6aa91-cc65-468c-868e-81e05a072707,1762167958677426061,0.259399,-0.480652,-0.070572,-0.007812,-0.476562,0.926758,0.6566752199527491,-27.762099714680637,85.85731609884053,0.7117436528205872,-0.17944678664207458,-0.15932150185108185,0.6601782441139221
658c7690-8968-4e6f-854c-4875192787e4,9ad6aa91-cc65-468c-868e-81e05a072707,1762167958688129061,0.198364,-0.541687,-0.192642,-0.015137,-0.462891,0.917969,0.6564022721960585,-27.75523032085223,85.81642607596824,0.7119891047477722,-0.17945949733257294,-0.15921947360038757,0.6599346399307251
658c7690-8968-4e6f-854c-4875192787e4,9ad6aa91-cc65-468c-868e-81e05a072707,1762167958698833061,0.442505,-0.480652,0.295639,-0.006348,-0.466309,0.923828,0.6541022117941991,-27.75124877550623,85.79716944094456,0.7121027708053589,-0.17944833636283875,-0.15918061137199402,0.6598243713378906
