section id,recording id,timestamp [ns],gyro x [deg/s],gyro y [deg/s],gyro z [deg/s],acceleration x [g],acceleration y [g],acceleration z [g],roll [deg],pitch [deg],yaw [deg],quaternion w,quaternion x,quaternion y,quaternion z
0f63bf27-f098-4841-be8f-101b7113d811,27b710de-cf4d-4085-97c5-044321799262,1760443458805424803,-3.782272,-4.091263,3.355026,-0.107422,-0.381836,0.947266,5.00831155979056,-23.39314537332398,123.5275590632284,0.470645010471344,-0.1335144340991974,-0.1581927239894867,0.8576952219009399
0f63bf27-f098-4841-be8f-101b7113d811,27b710de-cf4d-4085-97c5-044321799262,1760443458813516803,-4.270554,-4.091263,4.148483,-0.098633,-0.369629,0.926269,4.999925729243714,-23.414013626720244,123.33285523745559,0.47207942605018616,-0.13380345702171326,-0.15815776586532593,0.8568679094314575
0f63bf27-f098-4841-be8f-101b7113d811,27b710de-cf4d-4085-97c5-044321799262,1760443458821608803,-4.514694,-4.701614,4.209518,-0.101562,-0.364258,0.93457,4.978820974111557,-23.436223659211645,123.16986699222441,0.4732571542263031,-0.1339593082666397,-0.158222034573555,0.8561817407608032
0f63bf27-f098-4841-be8f-101b7113d811,27b710de-cf4d-4085-97c5-044321799262,1760443458829700803,-5.002975,-4.88472,4.575729,-0.100586,-0.373535,0.950684,4.958566134866394,-23.46269987749864,122.99891152101934,0.47449222207069397,-0.13415005803108215,-0.15830548107624054,0.8554525375366211
0f63bf27-f098-4841-be8f-101b7113d811,27b710de-cf4d-4085-97c5-044321799262,1760443458840250803,-4.882812,-5.187988,4.453659,-0.096191,-0.382324,0.969727,4.93879690833345,-23.485750463059947,122.81609170484944,0.4758170247077942,-0.13434761762619019,-0.1583469659090042,0.8546776175498962
0f63bf27-f098-4841-be8f-101b7113d811,27b710de-cf4d-4085-97c5-044321799262,1760443458850801803,-4.699707,-5.249023,4.392624,-0.098633,-0.381348,0.969727,4.915127714260568,-23.50527736599793,122.69253592846205,0.4766952693462372,-0.1344204694032669,-0.1584474742412567,0.8541579246520996
0f63bf27-f098-4841-be8f-101b7113d811,27b710de-cf4d-4085-97c5-044321799262,1760443458861352803,-3.843307,-5.495071,4.575729,-0.079102,-0.377441,0.960937,4.89086692296781,-23.526157956748154,122.55841959348588,0.4776499569416046,-0.1345093548297882,-0.1585482358932495,0.8535917401313782
0f63bf27-f098-4841-be8f-101b7113d811,27b710de-cf4d-4085-97c5-044321799262,1760443458872025803,-4.02832,-5.310059,4.575729,-0.083984,-0.375488,0.964355,4.860816876536121,-23.5402202485596,122.3969927888084,0.4788028299808502,-0.1345658004283905,-0.15858985483646393,0.8529289364814758
0f63bf27-f098-4841-be8f-101b7113d811,27b710de-cf4d-4085-97c5-044321799262,1760443458882698803,-3.477097,-4.94194,4.453659,-0.087891,-0.376953,0.96582,4.83631480784887,-23.551261131395844,122.28566470831731,0.47959136962890625,-0.1345822960138321,-0.15864454209804535,0.8524729609489441
0f63bf27-f098-4841-be8f-101b7113d811,27b710de-cf4d-4085-97c5-044321799262,1760443458893371803,-2.746582,-4.943848,4.209518,-0.089844,-0.379883,0.953125,4.8129690265729685,-23.55991994682667,122.14765763883752,0.4805806577205658,-0.13463488221168518,-0.15864525735378265,0.8519071936607361
0f63bf27-f098-4841-be8f-101b7113d811,27b710de-cf4d-4085-97c5-044321799262,1760443458904029803,-2.256393,-5.067825,4.087448,-0.091797,-0.377441,0.962402,4.766783817853058,-23.56754637534179,121.77816458021915,0.4832570254802704,-0.1348341554403305,-0.15846224129199982,0.8503944277763367
0f63bf27-f098-4841-be8f-101b7113d811,27b710de-cf4d-4085-97c5-044321799262,1760443458914689803,-1.82724,-4.638672,4.270554,-0.087891,-0.388184,0.964844,4.744605038506654,-23.568086195411798,121.60066324489978,0.48454275727272034,-0.134917214512825,-0.15835101902484894,0.8496700525283813
0f63bf27-f098-4841-be8f-101b7113d811,27b710de-cf4d-4085-97c5-044321799262,1760443458925349803,-1.585007,-4.579544,3.965378,-0.077148,-0.384277,0.946777,4.721481318609578,-23.567328303550635,121.43974236748183,0.4857039749622345,-0.13496501743793488,-0.1582537442445755,0.849017322063446
0f63bf27-f098-4841-be8f-101b7113d811,27b710de-cf4d-4085-97c5-044321799262,1760443458933350803,-0.852585,-4.030228,3.965378,-0.077148,-0.386719,0.947754,4.698448188469942,-23.560785693181042,121.26557000643096,0.4869658052921295,-0.13500791788101196,-0.15809740126132965,0.8483165502548218
0f63bf27-f098-4841-be8f-101b7113d811,27b710de-cf4d-4085-97c5-044321799262,1760443458941353803,-0.669479,-4.091263,3.965378,-0.072266,-0.385254,0.952637,4.675119604089486,-23.553889894076452,121.06970477604605,0.488386869430542,-0.13507689535617828,-0.15791434049606323,0.8475223779678345
0f63bf27-f098-4841-be8f-101b7113d811,27b710de-cf4d-4085-97c5-044321799262,1760443458949356803,-0.181198,-4.030228,3.477097,-0.08252,-0.39502,0.945801,4.651949058858159,-23.544416314151604,121.00122883097714,0.48886674642562866,-0.13496069610118866,-0.15786172449588776,0.8472740054130554
0f63bf27-f098-4841-be8f-101b7113d811,27b710de-cf4d-4085-97c5-044321799262,1760443458957359803,0.0,-3.723145,3.721237,-0.070801,-0.383301,0.945312,4.631372100017398,-23.53403163761613,120.90358534696891,0.4895661771297455,-0.1349000185728073,-0.15775708854198456,0.8468992710113525
0f63bf27-f098-4841-be8f-101b7113d811,27b710de-cf4d-4085-97c5-044321799262,1760443458968023803,0.30899,-3.479004,2.988815,-0.076172,-0.384277,0.941894,4.611571249683189,-23.517848605876672,120.74451324579881,0.49072349071502686,-0.1349053680896759,-0.15753380954265594,0.846269965171814
0f63bf27-f098-4841-be8f-101b7113d811,27b710de-cf4d-4085-97c5-044321799262,1760443458978687803,0.307083,-3.602982,2.744675,-0.072266,-0.380371,0.957031,4.591564519637311,-23.50299098530984,120.6011503547277,0.49176302552223206,-0.1348927766084671,-0.15734006464481354,0.8457044363021851
0f63bf27-f098-4841-be8f-101b7113d811,27b710de-cf4d-4085-97c5-044321799262,1760443458989351803,0.246048,-3.053665,2.80571,-0.077148,-0.381836,0.937012,4.56797092401997,-23.484060124141852,120.48727009643882,0.49258193373680115,-0.13479599356651306,-0.15716637670993805,0.8452755212783813
0f63bf27-f098-4841-be8f-101b7113d811,27b710de-cf4d-4085-97c5-044321799262,1760443459000021803,-0.12207,-2.868652,2.378464,-0.0625,-0.380371,0.934082,4.530097730528003,-23.460297376886277,120.15751894762816,0.4949744939804077,-0.1348690390586853,-0.15676476061344147,0.8439397811889648
0f63bf27-f098-4841-be8f-101b7113d811,27b710de-cf4d-4085-97c5-044321799262,1760443459010693803,-0.488281,-3.051758,2.012253,-0.078613,-0.38623,0.936035,4.512582147678842,-23.454528245283093,119.95495456588975,0.49644505977630615,-0.134992778301239,-0.15655913949012756,0.843093991279602
0f63bf27-f098-4841-be8f-101b7113d811,27b710de-cf4d-4085-97c5-044321799262,1760443459021365803,-0.852585,-3.236771,1.829147,-0.065918,-0.391602,0.93457,4.4912093194217855,-23.449594141844038,119.81200364918782,0.4974702000617981,-0.1350100189447403,-0.15644678473472595,0.8425076007843018
0f63bf27-f098-4841-be8f-101b7113d811,27b710de-cf4d-4085-97c5-044321799262,1760443459032029803,-0.852585,-2.443314,0.974655,-0.082031,-0.393555,0.938477,4.473951548073777,-23.441575720428514,119.65612530533778,0.49859708547592163,-0.13506199419498444,-0.1562786102294922,0.8418641090393066
0f63bf27-f098-4841-be8f-101b7113d811,27b710de-cf4d-4085-97c5-044321799262,1760443459042695803,-0.91362,-2.260208,1.279831,-0.083008,-0.380859,0.945312,4.4580171432229445,-23.439938493528086,119.47405151188985,0.49991336464881897,-0.13518622517585754,-0.15612119436264038,0.8410924673080444
0f63bf27-f098-4841-be8f-101b7113d811,27b710de-cf4d-4085-97c5-044321799262,1760443459053361803,-1.03569,-2.748489,0.852585,-0.082031,-0.383301,0.930664,4.443435752946234,-23.4371618509529,119.33221322238042,0.5009359121322632,-0.13526061177253723,-0.15599693357944489,0.8404949307441711
0f63bf27-f098-4841-be8f-101b7113d811,27b710de-cf4d-4085-97c5-044321799262,1760443459061356803,-1.403809,-2.13623,0.486374,-0.072754,-0.387207,0.946777,4.4171718764688945,-23.43747895017837,119.07723809411304,0.5027689337730408,-0.13541634380817413,-0.15581315755844116,0.839408814907074
0f63bf27-f098-4841-be8f-101b7113d811,27b710de-cf4d-4085-97c5-044321799262,1760443459069351803,-1.523972,-2.260208,0.669479,-0.081543,-0.384277,0.941406,4.40484914726823,-23.440449457147558,118.88832399611503,0.5041335225105286,-0.13559557497501373,-0.15566585958003998,0.8385883569717407
0f63bf27-f098-4841-be8f-101b7113d811,27b710de-cf4d-4085-97c5-044321799262,1760443459077346803,-1.829147,-2.134323,0.364304,-0.080566,-0.374023,0.947754,4.393457022568473,-23.443376750094657,118.6909078961618,0.5055602192878723,-0.13579285144805908,-0.15550389885902405,0.8377270698547363
0f63bf27-f098-4841-be8f-101b7113d811,27b710de-cf4d-4085-97c5-044321799262,1760443459085341803,-2.441406,-2.258301,0.364304,-0.085938,-0.37207,0.949707,4.383131684881603,-23.452098949077754,118.4863367165747,0.507035493850708,-0.13603241741657257,-0.15537121891975403,0.8368207216262817
0f63bf27-f098-4841-be8f-101b7113d811,27b710de-cf4d-4085-97c5-044321799262,1760443459096024803,-2.685547,-2.01416,0.120163,-0.083008,-0.374023,0.943359,4.369658857213546,-23.464339991038063,118.28239241672689,0.5084980726242065,-0.13626334071159363,-0.15527880191802979,0.8359123468399048
0f63bf27-f098-4841-be8f-101b7113d811,27b710de-cf4d-4085-97c5-044321799262,1760443459106707803,-3.171921,-1.771927,0.547409,-0.080078,-0.392578,0.933594,4.360745310578467,-23.487113576926166,118.08628208108976,0.5099014043807983,-0.13656263053417206,-0.1552525758743286,0.8350130319595337
0f63bf27-f098-4841-be8f-101b7113d811,27b710de-cf4d-4085-97c5-044321799262,1760443459117390803,-3.477097,-2.443314,0.730515,-0.072266,-0.384766,0.936523,4.34375527982953,-23.507008461555483,117.9200572973849,0.5110764503479004,-0.13675044476985931,-0.1552763283252716,0.8342590928077698
0f63bf27-f098-4841-be8f-101b7113d811,27b710de-cf4d-4085-97c5-044321799262,1760443459128076803,-4.089355,-2.807617,0.730515,-0.082031,-0.390137,0.953125,4.327686337342116,-23.529364801136328,117.79450065782831,0.511954128742218,-0.1369009017944336,-0.15536239743232727,0.8336800336837769
0f63bf27-f098-4841-be8f-101b7113d811,27b710de-cf4d-4085-97c5-044321799262,1760443459138763803,-4.148483,-2.687454,0.669479,-0.077637,-0.394043,0.936035,4.3104935065828025,-23.555909607305747,117.6323079973837,0.5130931735038757,-0.13711151480674744,-0.15544025599956512,0.8329302668571472
0f63bf27-f098-4841-be8f-101b7113d811,27b710de-cf4d-4085-97c5-044321799262,1760443459149450803,-4.758835,-2.748489,0.669479,-0.072266,-0.387695,0.932129,4.292374219039037,-23.586103217311276,117.48577392341187,0.5141136646270752,-0.13731059432029724,-0.1555674821138382,0.8322441577911377
0f63bf27-f098-4841-be8f-101b7113d811,27b710de-cf4d-4085-97c5-044321799262,1760443459157435803,-4.94194,-2.80571,0.425339,-0.074219,-0.406738,0.937012,4.252724373177655,-23.65933294253934,117.2038291482471,0.5160577893257141,-0.13772694766521454,-0.1559438556432724,0.8309004306793213
0f63bf27-f098-4841-be8f-101b7113d811,27b710de-cf4d-4085-97c5-044321799262,1760443459165420803,-5.065918,-2.502441,0.852585,-0.086426,-0.399902,0.953125,4.240596448941078,-23.693372891938658,117.03113894857239,0.5172702670097351,-0.1380237638950348,-0.15603981912136078,0.8300787806510925
0f63bf27-f098-4841-be8f-101b7113d811,27b710de-cf4d-4085-97c5-044321799262,1760443459173405803,-4.882812,-2.319336,0.242233,-0.076172,-0.39502,0.945312,4.225605509108589,-23.72829476685564,116.85116637081579,0.5185294151306152,-0.13831418752670288,-0.15614576637744904,0.8292250633239746
0f63bf27-f098-4841-be8f-101b7113d811,27b710de-cf4d-4085-97c5-044321799262,1760443459181390803,-4.638672,-2.502441,0.608444,-0.068848,-0.412598,0.951172,4.208448693611361,-23.762292146703967,116.67434485173679,0.5197620391845703,-0.138581320643425,-0.15625810623168945,0.8283872008323669
0f63bf27-f098-4841-be8f-101b7113d811,27b710de-cf4d-4085-97c5-044321799262,1760443459192081803,-4.268646,-2.319336,0.120163,-0.073242,-0.39209,0.94873,4.191486382162173,-23.78999161146926,116.50059745387487,0.5209755301475525,-0.1388184130191803,-0.15632688999176025,0.8275718688964844
0f63bf27-f098-4841-be8f-101b7113d811,27b710de-cf4d-4085-97c5-044321799262,1760443459202772803,-4.089355,-1.647949,-0.062943,-0.076172,-0.400879,0.949707,4.181204701690508,-23.81774531899232,116.31629304832407,0.5222728848457336,-0.13911888003349304,-0.1563524305820465,0.8266984224319458
0f63bf27-f098-4841-be8f-101b7113d811,27b710de-cf4d-4085-97c5-044321799262,1760443459213463803,-3.04985,-1.771927,-0.185013,-0.083496,-0.405273,0.962402,4.172872545975964,-23.83529157458124,116.17712363889542,0.5232530832290649,-0.1393267661333084,-0.15634910762310028,0.826043963432312
0f63bf27-f098-4841-be8f-101b7113d811,27b710de-cf4d-4085-97c5-044321799262,1760443459224122803,-1.707077,-1.405716,-0.246048,-0.080566,-0.40332,0.970703,4.165137925365423,-23.845117685507468,116.10434020106817,0.5237603187561035,-0.13941413164138794,-0.15636742115020752,0.8257042169570923
0f63bf27-f098-4841-be8f-101b7113d811,27b710de-cf4d-4085-97c5-044321799262,1760443459234782803,-1.03569,-1.22261,0.0,-0.095215,-0.407715,0.961914,4.1600122300065605,-23.84457431088297,115.90617843784256,0.5251808166503906,-0.13964501023292542,-0.15614564716815948,0.8248043656349182
0f63bf27-f098-4841-be8f-101b7113d811,27b710de-cf4d-4085-97c5-044321799262,1760443459245442803,-0.364304,-1.340866,-0.185013,-0.095703,-0.40625,0.965332,4.160247345561631,-23.840078873807176,115.7280050555047,0.5264660716056824,-0.13986915349960327,-0.15589460730552673,0.8239941596984863
0f63bf27-f098-4841-be8f-101b7113d811,27b710de-cf4d-4085-97c5-044321799262,1760443459256106803,0.062943,-1.588821,0.242233,-0.101074,-0.401367,0.97168,4.16225188672856,-23.81392883502718,115.45161087658146,0.5284730195999146,-0.14014145731925964,-0.1553579717874527,0.8227635622024536
0f63bf27-f098-4841-be8f-101b7113d811,27b710de-cf4d-4085-97c5-044321799262,1760443459266773803,0.97847,-1.588821,0.730515,-0.106445,-0.386719,0.950195,4.164508857423219,-23.79149819863304,115.29679276751878,0.5296028852462769,-0.14026622474193573,-0.15499557554721832,0.8220838904380798
0f63bf27-f098-4841-be8f-101b7113d811,27b710de-cf4d-4085-97c5-044321799262,1760443459277440803,0.917435,-1.283646,1.218796,-0.095215,-0.381836,0.953613,4.171439107481126,-23.76627501793531,115.15042111801708,0.5306795835494995,-0.1403997540473938,-0.15460161864757538,0.8214406371116638
0f63bf27-f098-4841-be8f-101b7113d811,27b710de-cf4d-4085-97c5-044321799262,1760443459285424803,1.22261,-1.405716,1.340866,-0.102539,-0.386719,0.931641,4.177150098374828,-23.74142713994581,115.01643154895102,0.5316648483276367,-0.14050880074501038,-0.15423111617565155,0.8208543062210083
0f63bf27-f098-4841-be8f-101b7113d811,27b710de-cf4d-4085-97c5-044321799262,1760443459293410803,0.671387,-1.281738,1.890182,-0.088379,-0.378418,0.950195,4.186138582890514,-23.71903322591033,114.89883021066198,0.5325347781181335,-0.14062975347042084,-0.1538831740617752,0.8203348517417908
0f63bf27-f098-4841-be8f-101b7113d811,27b710de-cf4d-4085-97c5-044321799262,1760443459301396803,0.429153,-1.893997,1.829147,-0.092773,-0.383789,0.947754,4.190542672547536,-23.695163463626063,114.71897652758658,0.5338444709777832,-0.14079412817955017,-0.15346941351890564,0.8195318579673767
0f63bf27-f098-4841-be8f-101b7113d811,27b710de-cf4d-4085-97c5-044321799262,1760443459309382803,0.734329,-1.955032,2.134323,-0.108887,-0.387695,0.944336,4.194618492611621,-23.675520734985717,114.58559839662992,0.5348172783851624,-0.1409122794866562,-0.15314464271068573,0.8189378380775452
0f63bf27-f098-4841-be8f-101b7113d811,27b710de-cf4d-4085-97c5-044321799262,1760443459320069803,0.671387,-2.319336,2.439499,-0.095703,-0.393066,0.946289,4.2034179720248455,-23.659603468216655,114.53157734485112,0.5352262258529663,-0.1409747302532196,-0.15292224287986755,0.8187015056610107
0f63bf27-f098-4841-be8f-101b7113d811,27b710de-cf4d-4085-97c5-044321799262,1760443459330756803,0.854492,-3.112793,2.256393,-0.104492,-0.383301,0.962891,4.2044813040491915,-23.644789970527096,114.44281137421594,0.5358721017837524,-0.1410330981016159,-0.15270118415355682,0.8183101415634155
0f63bf27-f098-4841-be8f-101b7113d811,27b710de-cf4d-4085-97c5-044321799262,1760443459341443803,0.732422,-3.295898,2.744675,-0.104492,-0.389648,0.938477,4.1986644555791415,-23.62177758244257,114.29984410356037,0.5369011163711548,-0.1410766988992691,-0.15238651633262634,0.8176866173744202
0f63bf27-f098-4841-be8f-101b7113d811,27b710de-cf4d-4085-97c5-044321799262,1760443459352092803,0.549316,-4.02832,2.80571,-0.102539,-0.380371,0.944336,4.183619844475479,-23.589121138502097,114.04726030828827,0.5387053489685059,-0.14115509390830994,-0.15191088616847992,0.816574215888977
0f63bf27-f098-4841-be8f-101b7113d811,27b710de-cf4d-4085-97c5-044321799262,1760443459362740803,0.492096,-4.638672,3.538132,-0.097656,-0.387207,0.944824,4.1710014768700265,-23.57208410933748,113.9139855893504,0.5396500825881958,-0.1411634385585785,-0.151683509349823,0.8159911036491394
0f63bf27-f098-4841-be8f-101b7113d811,27b710de-cf4d-4085-97c5-044321799262,1760443459373388803,0.183105,-5.310059,4.026413,-0.10791,-0.371582,0.927734,4.157249661103194,-23.558832410724726,113.77991046384281,0.5405957102775574,-0.14118188619613647,-0.15148788690567017,0.815398097038269
0f63bf27-f098-4841-be8f-101b7113d811,27b710de-cf4d-4085-97c5-044321799262,1760443459381423803,-0.976562,-6.408691,5.369186,-0.102539,-0.369629,0.935059,4.141810361322736,-23.54923635339061,113.66755162123582,0.5413814187049866,-0.1411762535572052,-0.1513534039258957,0.814902663230896
0f63bf27-f098-4841-be8f-101b7113d811,27b710de-cf4d-4085-97c5-044321799262,1760443459389459803,-1.157761,-7.02095,5.552292,-0.100098,-0.381348,0.945801,4.12054200610928,-23.538537342899023,113.58303351553282,0.5419619083404541,-0.14108721911907196,-0.15127302706241608,0.814547061920166
0f63bf27-f098-4841-be8f-101b7113d811,27b710de-cf4d-4085-97c5-044321799262,1760443459397495803,-1.281738,-7.629395,6.467819,-0.094727,-0.39209,0.939941,4.095281230246477,-23.535211815932303,113.48427677409306,0.5426327586174011,-0.1410226821899414,-0.15124714374542236,0.8141162991523743
0f63bf27-f098-4841-be8f-101b7113d811,27b710de-cf4d-4085-97c5-044321799262,1760443459405531803,-1.708984,-8.239746,7.200241,-0.087402,-0.388184,0.9375,4.0625065279433175,-23.53682248311184,113.36552844948307,0.5434316992759705,-0.14095410704612732,-0.1512679010629654,0.8135913014411926
0f63bf27-f098-4841-be8f-101b7113d811,27b710de-cf4d-4085-97c5-044321799262,1760443459416182803,-1.281738,-9.033203,7.749557,-0.077637,-0.388672,0.931152,4.023823312433061,-23.53894294035582,113.33533869081789,0.5435934066772461,-0.14072918891906738,-0.15142947435379028,0.8134921193122864
0f63bf27-f098-4841-be8f-101b7113d811,27b710de-cf4d-4085-97c5-044321799262,1760443459426833803,-1.586914,-9.521484,8.054733,-0.07666,-0.380859,0.935059,3.9792870879243645,-23.535257053326198,113.30998188845933,0.5437172055244446,-0.14042945206165314,-0.1515832394361496,0.8134325742721558
0f63bf27-f098-4841-be8f-101b7113d811,27b710de-cf4d-4085-97c5-044321799262,1760443459437484803,-2.012253,-9.950638,8.60405,-0.065918,-0.382812,0.933105,3.9324889722831777,-23.535895370363125,113.27379665549108,0.5439116358757019,-0.1401481330394745,-0.1517655998468399,0.8133171200752258
0f63bf27-f098-4841-be8f-101b7113d811,27b710de-cf4d-4085-97c5-044321799262,1760443459448192803,-2.073288,-9.950638,8.909225,-0.067871,-0.380859,0.933105,3.832349978241915,-23.534856299871514,113.09511019154306,0.5450473427772522,-0.139669731259346,-0.1520158052444458,0.8125920295715332
0f63bf27-f098-4841-be8f-101b7113d811,27b710de-cf4d-4085-97c5-044321799262,1760443459458900803,-2.258301,-10.070801,9.092331,-0.05957,-0.375,0.937012,3.7768943469639527,-23.534611720934958,113.00965081153643,0.5455797910690308,-0.13938884437084198,-0.15217389166355133,0.8122533559799194
0f63bf27-f098-4841-be8f-101b7113d811,27b710de-cf4d-4085-97c5-044321799262,1760443459469608803,-2.075195,-10.192871,9.092331,-0.04834,-0.370117,0.939941,3.718078059809624,-23.5323190549862,112.91589276688448,0.54616779088974,-0.13908590376377106,-0.15232375264167786,0.811881959438324
0f63bf27-f098-4841-be8f-101b7113d811,27b710de-cf4d-4085-97c5-044321799262,1760443459477572803,-2.744675,-9.157181,8.84819,-0.049805,-0.371094,0.944336,3.662203973937299,-23.534237718271132,112.80841457137699,0.5468533039093018,-0.13884204626083374,-0.1524735987186432,0.8114340305328369
0f63bf27-f098-4841-be8f-101b7113d811,27b710de-cf4d-4085-97c5-044321799262,1760443459485536803,-3.171921,-8.6689,8.72612,-0.055664,-0.35498,0.946777,3.6081860830152124,-23.53688246637166,112.79197151040003,0.5468958020210266,-0.13849382102489471,-0.15273039042949677,0.8114165663719177
0f63bf27-f098-4841-be8f-101b7113d811,27b710de-cf4d-4085-97c5-044321799262,1760443459493500803,-2.441406,-8.605957,7.932663,-0.025879,-0.383301,0.961426,3.557595401617381,-23.537048919757943,112.76001375617086,0.5470544695854187,-0.1381790041923523,-0.1529344767332077,0.8113248944282532
0f63bf27-f098-4841-be8f-101b7113d811,27b710de-cf4d-4085-97c5-044321799262,1760443459501464803,-2.195358,-7.871628,7.078171,-0.041016,-0.359863,0.957031,3.4998424326661373,-23.53877487432598,112.68121666953752,0.5475338101387024,-0.1378834992647171,-0.15312771499156952,0.8110153079032898
0f63bf27-f098-4841-be8f-101b7113d811,27b710de-cf4d-4085-97c5-044321799262,1760443459509460803,-2.012253,-7.509232,6.650925,-0.027344,-0.367188,0.963379,3.4476325802841816,-23.53016568804391,112.64529681842001,0.5477248430252075,-0.1375216543674469,-0.1532726138830185,0.8109204173088074
0f63bf27-f098-4841-be8f-101b7113d811,27b710de-cf4d-4085-97c5-044321799262,1760443459517456803,-1.953125,-6.835938,5.735397,-0.021973,-0.373535,0.950195,3.3954742515188197,-23.525603240319807,112.57484765591231,0.5481570363044739,-0.1372254639863968,-0.15340501070022583,0.8106535077095032
0f63bf27-f098-4841-be8f-101b7113d811,27b710de-cf4d-4085-97c5-044321799262,1760443459525452803,-2.195358,-6.166458,4.94194,-0.030762,-0.375,0.958496,3.346043247276337,-23.52380710431744,112.44463660235513,0.549013078212738,-0.13704180717468262,-0.15347301959991455,0.8100922107696533
0f63bf27-f098-4841-be8f-101b7113d811,27b710de-cf4d-4085-97c5-044321799262,1760443459533448803,-2.378464,-5.556107,3.782272,-0.031738,-0.358887,0.966309,3.298736366452713,-23.52084063591951,112.30522976846098,0.5499371886253357,-0.13688026368618011,-0.153512105345726,0.8094850778579712
0f63bf27-f098-4841-be8f-101b7113d811,27b710de-cf4d-4085-97c5-044321799262,1760443459544146803,-2.258301,-5.310059,3.171921,-0.041992,-0.376465,0.950684,3.253093060333662,-23.519185700791166,112.15643779535853,0.550927996635437,-0.1367495059967041,-0.1535419225692749,0.8088275194168091
0f63bf27-f098-4841-be8f-101b7113d811,27b710de-cf4d-4085-97c5-044321799262,1760443459554844803,-2.500534,-5.495071,2.378464,-0.03125,-0.365234,0.937988,3.2096410109010116,-23.524121840506083,112.03067272521227,0.5517532229423523,-0.13663481175899506,-0.15363606810569763,0.8082663416862488
0f63bf27-f098-4841-be8f-101b7113d811,27b710de-cf4d-4085-97c5-044321799262,1760443459565542803,-2.563477,-5.004883,1.462936,-0.036621,-0.377441,0.943359,3.160378397302587,-23.52758319004091,111.88893107606583,0.5526837706565857,-0.1364939659833908,-0.1537291407585144,0.8076364398002625
0f63bf27-f098-4841-be8f-101b7113d811,27b710de-cf4d-4085-97c5-044321799262,1760443459573528803,-2.746582,-4.943848,0.79155,-0.035645,-0.37793,0.943848,3.112262942352685,-23.5363841931874,111.7226139568553,0.5537837743759155,-0.13641998171806335,-0.15382586419582367,0.8068766593933105
0f63bf27-f098-4841-be8f-101b7113d811,27b710de-cf4d-4085-97c5-044321799262,1760443459581514803,-3.04985,-4.701614,0.181198,-0.04541,-0.39209,0.94043,3.0668733663524312,-23.54583883634363,111.66363698065611,0.5541303753852844,-0.13622461259365082,-0.15404219925403595,0.8066303730010986
0f63bf27-f098-4841-be8f-101b7113d811,27b710de-cf4d-4085-97c5-044321799262,1760443459589500803,-3.355026,-4.213333,-0.490189,-0.043945,-0.379395,0.952637,3.0219336687893477,-23.56575059554581,111.5601084177137,0.5547822713851929,-0.13614243268966675,-0.15427778661251068,0.8061509728431702
0f63bf27-f098-4841-be8f-101b7113d811,27b710de-cf4d-4085-97c5-044321799262,1760443459597486803,-3.234863,-4.02832,-1.039505,-0.039062,-0.394043,0.954102,2.9820794045141397,-23.580383763031904,111.37545568248072,0.5560149550437927,-0.13618066906929016,-0.15435519814491272,0.8052799701690674
0f63bf27-f098-4841-be8f-101b7113d811,27b710de-cf4d-4085-97c5-044321799262,1760443459608151803,-3.232956,-3.419876,-1.161575,-0.04541,-0.396484,0.953125,2.938290349502783,-23.59792347732861,111.20623376801966,0.5571300983428955,-0.13618500530719757,-0.1544908881187439,0.8044820427894592
0f63bf27-f098-4841-be8f-101b7113d811,27b710de-cf4d-4085-97c5-044321799262,1760443459618816803,-2.929688,-3.356934,-1.588821,-0.049805,-0.39502,0.965332,2.9026833623355413,-23.61625633534506,111.07083968060168,0.5580170154571533,-0.13620558381080627,-0.1546328216791153,0.8038362860679626
0f63bf27-f098-4841-be8f-101b7113d811,27b710de-cf4d-4085-97c5-044321799262,1760443459629481803,-2.620697,-3.356934,-1.588821,-0.052734,-0.385254,0.953613,2.869898237560265,-23.63153269890917,110.89343675631697,0.5592038035392761,-0.13628849387168884,-0.15468959510326385,0.8029861450195312
0f63bf27-f098-4841-be8f-101b7113d811,27b710de-cf4d-4085-97c5-044321799262,1760443459637467803,-2.012253,-3.358841,-1.649857,-0.04541,-0.395996,0.962891,2.80374257114856,-23.651497929237795,110.54959463526663,0.5615046620368958,-0.13638581335544586,-0.15474477410316467,0.8013516664505005
0f63bf27-f098-4841-be8f-101b7113d811,27b710de-cf4d-4085-97c5-044321799262,1760443459645456803,-1.586914,-3.356934,-1.405716,-0.063965,-0.402344,0.94873,2.7760122372577762,-23.66005385846104,110.41236288820286,0.5624192357063293,-0.1364186555147171,-0.1547776460647583,0.8006981015205383
0f63bf27-f098-4841-be8f-101b7113d811,27b710de-cf4d-4085-97c5-044321799262,1760443459653445803,-1.340866,-3.419876,-1.283646,-0.058105,-0.397461,0.94873,2.749284792779564,-23.66206439189051,110.26049503000242,0.5634421110153198,-0.13644681870937347,-0.1547422707080841,0.7999807000160217
0f63bf27-f098-4841-be8f-101b7113d811,27b710de-cf4d-4085-97c5-044321799262,1760443459661434803,-0.915527,-3.356934,-0.97847,-0.059082,-0.399902,0.966797,2.7248815918100107,-23.66252569135648,110.0827925133619,0.5646486878395081,-0.1365186870098114,-0.15465398132801056,0.7991343140602112
0f63bf27-f098-4841-be8f-101b7113d811,27b710de-cf4d-4085-97c5-044321799262,1760443459672073803,-0.608444,-3.602982,-1.039505,-0.069336,-0.395996,0.964355,2.696161809306439,-23.657001705737297,109.94484402205703,0.5655763149261475,-0.1364777535200119,-0.15459251403808594,0.7984970211982727
0f63bf27-f098-4841-be8f-101b7113d811,27b710de-cf4d-4085-97c5-044321799262,1760443459682712803,0.123978,-3.293991,-0.8564,-0.065918,-0.396973,0.940918,2.6757291764537166,-23.647347850309067,109.8719793203321,0.566064715385437,-0.1363866776227951,-0.15453892946243286,0.7981768250465393
0f63bf27-f098-4841-be8f-101b7113d811,27b710de-cf4d-4085-97c5-044321799262,1760443459693351803,0.492096,-3.173828,-0.123978,-0.045898,-0.396484,0.948242,2.649445312078144,-23.630652912235387,109.70654958181872,0.567195475101471,-0.13634523749351501,-0.1543550044298172,0.7974163889884949
0f63bf27-f098-4841-be8f-101b7113d811,27b710de-cf4d-4085-97c5-044321799262,1760443459701367803,0.980377,-3.356934,0.120163,-0.059082,-0.382812,0.949219,2.6274891303777435,-23.607148090610256,109.55361137591714,0.5682501196861267,-0.1362834870815277,-0.15411724150180817,0.7967218160629272
0f63bf27-f098-4841-be8f-101b7113d811,27b710de-cf4d-4085-97c5-044321799262,1760443459709383803,1.466751,-3.053665,0.364304,-0.064941,-0.380859,0.951172,2.6065734207630196,-23.578992634787006,109.43089513087303,0.5690994262695312,-0.13616517186164856,-0.1538781374692917,0.7961819171905518
0f63bf27-f098-4841-be8f-101b7113d811,27b710de-cf4d-4085-97c5-044321799262,1760443459717399803,2.260208,-3.053665,0.730515,-0.050781,-0.375488,0.947266,2.5837605689134104,-23.543415152854696,109.29977414977492,0.5700105428695679,-0.1360081434249878,-0.15358704328536987,0.7956129908561707
0f63bf27-f098-4841-be8f-101b7113d811,27b710de-cf4d-4085-97c5-044321799262,1760443459725415803,2.382278,-3.053665,0.669479,-0.052246,-0.384766,0.954102,2.5648228007091407,-23.504529504745392,109.16389595520027,0.5709621906280518,-0.13586755096912384,-0.15324844419956207,0.795019805431366
0f63bf27-f098-4841-be8f-101b7113d811,27b710de-cf4d-4085-97c5-044321799262,1760443459736079803,2.445221,-2.990723,1.157761,-0.053711,-0.379883,0.945801,2.54759280193491,-23.470311488295508,109.02008908633205,0.5719664096832275,-0.1357717365026474,-0.152925044298172,0.7943763732910156
0f63bf27-f098-4841-be8f-101b7113d811,27b710de-cf4d-4085-97c5-044321799262,1760443459746743803,2.197266,-2.990723,1.585007,-0.041992,-0.377441,0.936035,2.528552527769681,-23.43758416333321,108.87730427448051,0.5729591250419617,-0.13566875457763672,-0.1526227742433548,0.793736457824707
0f63bf27-f098-4841-be8f-101b7113d811,27b710de-cf4d-4085-97c5-044321799262,1760443459757407803,2.260208,-2.748489,1.462936,-0.049805,-0.376465,0.949219,2.5149670514954447,-23.403687040707464,108.73469324163449,0.5739582180976868,-0.13559693098068237,-0.15228572487831116,0.7930914163589478
0f63bf27-f098-4841-be8f-101b7113d811,27b710de-cf4d-4085-97c5-044321799262,1760443459768069803,1.159668,-2.441406,1.890182,-0.058594,-0.373535,0.945312,2.49810949855614,-23.37615385769796,108.61289864967603,0.5748026967048645,-0.13550575077533722,-0.15203441679477692,0.7925434112548828
0f63bf27-f098-4841-be8f-101b7113d811,27b710de-cf4d-4085-97c5-044321799262,1760443459778732803,1.10054,-2.077103,1.707077,-0.053223,-0.382812,0.939941,2.488847513584233,-23.354787939761728,108.52169054755574,0.5754398703575134,-0.13545672595500946,-0.15182437002658844,0.792129635810852
0f63bf27-f098-4841-be8f-101b7113d811,27b710de-cf4d-4085-97c5-044321799262,1760443459789395803,0.246048,-1.771927,2.012253,-0.039062,-0.376953,0.939941,2.4819738078090983,-23.33411943563848,108.46499418223895,0.5758408308029175,-0.13538174331188202,-0.1516481190919876,0.7918848395347595
0f63bf27-f098-4841-be8f-101b7113d811,27b710de-cf4d-4085-97c5-044321799262,1760443459797403803,0.429153,-1.710892,2.012253,-0.038086,-0.39209,0.956055,2.467265509428881,-23.30332621186543,108.22736126083362,0.5774895548820496,-0.1354411542415619,-0.15122731029987335,0.7907537221908569
0f63bf27-f098-4841-be8f-101b7113d811,27b710de-cf4d-4085-97c5-044321799262,1760443459805411803,-0.12207,-1.831055,2.134323,-0.041992,-0.382324,0.943359,2.459900093808348,-23.28910480789255,108.07612731260429,0.5785355567932129,-0.13551892340183258,-0.1509869396686554,0.7900213599205017
0f63bf27-f098-4841-be8f-101b7113d811,27b710de-cf4d-4085-97c5-044321799262,1760443459813419803,-0.059128,-1.588821,1.829147,-0.035156,-0.382812,0.947266,2.4561166241448174,-23.27711136587583,107.93026814644472,0.579546332359314,-0.13562500476837158,-0.1507503092288971,0.7893072366714478
0f63bf27-f098-4841-be8f-101b7113d811,27b710de-cf4d-4085-97c5-044321799262,1760443459821427803,0.246048,-1.466751,1.707077,-0.033691,-0.378418,0.956055,2.448644218820467,-23.26416841669719,107.79381679120713,0.5804874897003174,-0.13568821549415588,-0.15053690969944,0.7886452078819275
0f63bf27-f098-4841-be8f-101b7113d811,27b710de-cf4d-4085-97c5-044321799262,1760443459832101803,0.492096,-1.159668,1.707077,-0.04541,-0.383301,0.961426,2.4420452895510203,-23.251002017828025,107.64067748521984,0.5815439820289612,-0.13577787578105927,-0.15029782056808472,0.7878966927528381
0f63bf27-f098-4841-be8f-101b7113d811,27b710de-cf4d-4085-97c5-044321799262,1760443459842775803,0.125885,-1.525879,1.218796,-0.033203,-0.372559,0.961426,2.428147580543596,-23.237668318505317,107.52592105461785,0.5823264122009277,-0.13576588034629822,-0.1501401960849762,0.7873507142066956
0f63bf27-f098-4841-be8f-101b7113d811,27b710de-cf4d-4085-97c5-044321799262,1760443459853449803,-0.120163,-1.283646,0.669479,-0.027832,-0.365723,0.954102,2.4183623426436487,-23.222387220948967,107.46924619683796,0.5827165842056274,-0.13569611310958862,-0.1500171571969986,0.7870975136756897
0f63bf27-f098-4841-be8f-101b7113d811,27b710de-cf4d-4085-97c5-044321799262,1760443459861440803,-0.793457,-0.671387,-0.246048,-0.035645,-0.383789,0.941894,2.4193831109397044,-23.209916073610557,107.32569094233547,0.5837146639823914,-0.1358281672000885,-0.14975571632385254,0.786384642124176
0f63bf27-f098-4841-be8f-101b7113d811,27b710de-cf4d-4085-97c5-044321799262,1760443459869433803,-0.730515,-0.307083,-0.917435,-0.041016,-0.363281,0.94043,2.4179336726494953,-23.19954723087623,107.19614439623085,0.5846107006072998,-0.13593515753746033,-0.14953790605068207,0.7857417464256287
0f63bf27-f098-4841-be8f-101b7113d811,27b710de-cf4d-4085-97c5-044321799262,1760443459877426803,-0.852585,-0.123978,-1.22261,-0.035156,-0.381348,0.947266,2.42155331317189,-23.18420425217838,107.10585343448209,0.5852481126785278,-0.13600030541419983,-0.14930644631385803,0.7852998375892639
0f63bf27-f098-4841-be8f-101b7113d811,27b710de-cf4d-4085-97c5-044321799262,1760443459885419803,-1.157761,0.059128,-2.077103,-0.041016,-0.378418,0.95166,2.4113269896257155,-23.18242506630828,106.99249425931305,0.5860129594802856,-0.1360689103603363,-0.14921186864376068,0.784735381603241
0f63bf27-f098-4841-be8f-101b7113d811,27b710de-cf4d-4085-97c5-044321799262,1760443459896077803,-0.91362,0.364304,-2.077103,-0.040527,-0.383789,0.951172,2.403382002209068,-23.179605648052444,106.86383443792288,0.5868858695030212,-0.1361677199602127,-0.1490802764892578,0.7840906381607056
0f63bf27-f098-4841-be8f-101b7113d811,27b710de-cf4d-4085-97c5-044321799262,1760443459906735803,-1.03569,-0.001907,-2.565384,-0.037598,-0.371582,0.953613,2.3993279121144546,-23.17655414993289,106.70476724808795,0.5879712104797363,-0.13633134961128235,-0.1488909274339676,0.783284604549408
0f63bf27-f098-4841-be8f-101b7113d811,27b710de-cf4d-4085-97c5-044321799262,1760443459917393803,-0.915527,0.427246,-2.87056,-0.055664,-0.377441,0.946289,2.3899192494398145,-23.17173110124569,106.55684264841948,0.5889739990234375,-0.1364346742630005,-0.14873002469539642,0.7825434803962708
0f63bf27-f098-4841-be8f-101b7113d811,27b710de-cf4d-4085-97c5-044321799262,1760443459928047803,-1.220703,0.610352,-3.480911,-0.052246,-0.377441,0.957519,2.386797282791192,-23.16779866520863,106.26839158533483,0.5909414887428284,-0.13676729798316956,-0.1483752429485321,0.7810680866241455
0f63bf27-f098-4841-be8f-101b7113d811,27b710de-cf4d-4085-97c5-044321799262,1760443459938701803,-0.852585,0.669479,-3.419876,-0.054687,-0.366211,0.954102,2.3914111905974016,-23.158245162282896,106.13519392042872,0.5918636322021484,-0.13692229986190796,-0.14812685549259186,0.7803896069526672
0f63bf27-f098-4841-be8f-101b7113d811,27b710de-cf4d-4085-97c5-044321799262,1760443459949355803,-0.608444,0.669479,-3.358841,-0.055664,-0.362793,0.95459,2.3888685294353365,-23.146789567409616,106.04899383881016,0.59245765209198,-0.1369578242301941,-0.14795848727226257,0.7799644470214844
0f63bf27-f098-4841-be8f-101b7113d811,27b710de-cf4d-4085-97c5-044321799262,1760443459960047803,-0.305176,0.854492,-4.213333,-0.050781,-0.364258,0.969727,2.387375946743989,-23.130616859278053,105.92142928897397,0.5933383703231812,-0.1370294988155365,-0.14770296216011047,0.7793305516242981
0f63bf27-f098-4841-be8f-101b7113d811,27b710de-cf4d-4085-97c5-044321799262,1760443459970737803,-0.610352,1.037598,-4.091263,-0.056152,-0.359375,0.962402,2.38725905058469,-23.116473328170493,105.73507745975456,0.5946177244186401,-0.1371961534023285,-0.14738383889198303,0.7783859968185425
0f63bf27-f098-4841-be8f-101b7113d811,27b710de-cf4d-4085-97c5-044321799262,1760443459981427803,0.0,1.342773,-4.396439,-0.053711,-0.365234,0.953613,2.388133567065332,-23.09941864679469,105.59625356366227,0.5955770015716553,-0.13729289174079895,-0.14709648489952087,0.7776895761489868
0f63bf27-f098-4841-be8f-101b7113d811,27b710de-cf4d-4085-97c5-044321799262,1760443459992085803,0.307083,1.340866,-4.945755,-0.049805,-0.361816,0.960937,2.3947293630783126,-23.06797074802525,105.25553445945405,0.597923994064331,-0.13761204481124878,-0.146438866853714,0.7759544253349304
0f63bf27-f098-4841-be8f-101b7113d811,27b710de-cf4d-4085-97c5-044321799262,1760443460002743803,0.307083,1.523972,-4.945755,-0.050781,-0.344727,0.949219,2.3936651472842283,-23.045457645368625,105.0875903450013,0.5990799069404602,-0.13770292699337006,-0.1460893154144287,0.7751121520996094
0f63bf27-f098-4841-be8f-101b7113d811,27b710de-cf4d-4085-97c5-044321799262,1760443460013401803,0.549316,0.976562,-4.945755,-0.052734,-0.364258,0.957031,2.3894428649758535,-23.02450271230897,104.92880495675934,0.6001672744750977,-0.13776814937591553,-0.14577795565128326,0.7743176221847534
0f63bf27-f098-4841-be8f-101b7113d811,27b710de-cf4d-4085-97c5-044321799262,1760443460024074803,0.307083,-0.490189,-5.250931,-0.060547,-0.369629,0.943848,2.373460171933473,-23.001922297972406,104.77214647404182,0.6012257933616638,-0.13774225115776062,-0.1455199122428894,0.7735491991043091
0f63bf27-f098-4841-be8f-101b7113d811,27b710de-cf4d-4085-97c5-044321799262,1760443460034745803,-0.425339,-0.795364,-4.701614,-0.054687,-0.359375,0.918457,2.3588864428749505,-22.987619752656933,104.61741764404277,0.6022644639015198,-0.13776597380638123,-0.1453133076429367,0.7727754712104797
0f63bf27-f098-4841-be8f-101b7113d811,27b710de-cf4d-4085-97c5-044321799262,1760443460045416803,-1.155853,-1.220703,-4.945755,-0.048828,-0.349121,0.932129,2.339105787748762,-22.980466170103732,104.46033286439811,0.6033048033714294,-0.13779452443122864,-0.14517995715141296,0.7719835638999939
0f63bf27-f098-4841-be8f-101b7113d811,27b710de-cf4d-4085-97c5-044321799262,1760443460053417803,-2.378464,-1.405716,-4.579544,-0.050781,-0.357422,0.930664,2.289380175767597,-22.990714896043187,104.20459997118593,0.6049536466598511,-0.13783730566501617,-0.14520397782325745,0.7706799507141113
0f63bf27-f098-4841-be8f-101b7113d811,27b710de-cf4d-4085-97c5-044321799262,1760443460061417803,-3.293991,-1.893997,-4.640579,-0.038086,-0.355957,0.922363,2.2603339197089714,-23.011039729573067,104.01333017741119,0.6061833500862122,-0.137990802526474,-0.14526474475860596,0.7696741223335266
0f63bf27-f098-4841-be8f-101b7113d811,27b710de-cf4d-4085-97c5-044321799262,1760443460069417803,-4.516602,-2.197266,-4.335403,-0.044922,-0.36377,0.921387,2.2312384698991283,-23.0413788980216,103.8162685376635,0.6074405908584595,-0.1382044553756714,-0.1453862488269806,0.7686209082603455
0f63bf27-f098-4841-be8f-101b7113d811,27b710de-cf4d-4085-97c5-044321799262,1760443460077417803,-5.125046,-2.077103,-3.969193,-0.044434,-0.371094,0.929199,2.203050162521058,-23.076317279033944,103.63805471820201,0.6085663437843323,-0.13842526078224182,-0.14555636048316956,0.7676578760147095
0f63bf27-f098-4841-be8f-101b7113d811,27b710de-cf4d-4085-97c5-044321799262,1760443460088081803,-5.554199,-2.01416,-4.213333,-0.056641,-0.375,0.939941,2.1783485449279105,-23.11712330006397,103.48184637661758,0.6095419526100159,-0.13867318630218506,-0.14577367901802063,0.7667973637580872
0f63bf27-f098-4841-be8f-101b7113d811,27b710de-cf4d-4085-97c5-044321799262,1760443460098745803,-5.430222,-1.955032,-4.152298,-0.046875,-0.373535,0.956543,2.1515437435345905,-23.1519863323125,103.3234866454258,0.6105335354804993,-0.13887929916381836,-0.14595918357372284,0.7659353613853455
0f63bf27-f098-4841-be8f-101b7113d811,27b710de-cf4d-4085-97c5-044321799262,1760443460109409803,-5.493164,-1.831055,-3.480911,-0.03125,-0.376953,0.95166,2.123969528639327,-23.19069191893689,103.1623721095939,0.6115373969078064,-0.13910487294197083,-0.14617092907428741,0.7650526762008667
0f63bf27-f098-4841-be8f-101b7113d811,27b710de-cf4d-4085-97c5-044321799262,1760443460117405803,-5.371094,-1.525879,-3.725052,-0.026855,-0.395508,0.959961,2.0923595014022425,-23.227205804917965,103.02828236659117,0.6123564839363098,-0.1392582654953003,-0.14642199873924255,0.7643212676048279
0f63bf27-f098-4841-be8f-101b7113d811,27b710de-cf4d-4085-97c5-044321799262,1760443460125402803,-5.065918,-1.281738,-3.847122,-0.038086,-0.401367,0.955566,2.063711751162325,-23.26745235313765,102.87816940457994,0.6132813692092896,-0.13947248458862305,-0.14666253328323364,0.763494074344635
0f63bf27-f098-4841-be8f-101b7113d811,27b710de-cf4d-4085-97c5-044321799262,1760443460133399803,-4.81987,-1.157761,-3.786087,-0.029785,-0.40332,0.956055,2.038019089379612,-23.307583616734107,102.70002835864105,0.6143953204154968,-0.13974256813526154,-0.14685192704200745,0.7625119686126709
0f63bf27-f098-4841-be8f-101b7113d811,27b710de-cf4d-4085-97c5-044321799262,1760443460141396803,-5.065918,-1.037598,-3.969193,-0.033691,-0.402344,0.959961,2.0139972099874472,-23.343238969241487,102.56886604321578,0.6152017712593079,-0.1399405598640442,-0.14705927670001984,0.7617851495742798
0f63bf27-f098-4841-be8f-101b7113d811,27b710de-cf4d-4085-97c5-044321799262,1760443460152073803,-5.125046,-1.157761,-4.152298,-0.021484,-0.386719,0.96582,1.9896259539996313,-23.383264150678745,102.42674852314565,0.6160751581192017,-0.1401742696762085,-0.14728400111198425,0.7609924674034119
0f63bf27-f098-4841-be8f-101b7113d811,27b710de-cf4d-4085-97c5-044321799262,1760443460162750803,-4.453659,-1.157761,-4.091263,-0.034668,-0.397461,0.961426,1.9614539932355224,-23.420935457081672,102.25959267373108,0.6171108484268188,-0.14040319621562958,-0.14748241007328033,0.7600721120834351
0f63bf27-f098-4841-be8f-101b7113d811,27b710de-cf4d-4085-97c5-044321799262,1760443460173427803,-4.270554,-1.10054,-4.152298,-0.048828,-0.393555,0.953613,1.9366480794388514,-23.45152561314929,102.09834033064797,0.6181172728538513,-0.14060984551906586,-0.14762233197689056,0.7591883540153503
0f63bf27-f098-4841-be8f-101b7113d811,27b710de-cf4d-4085-97c5-044321799262,1760443460184089803,-4.268646,-0.549316,-4.030228,-0.041016,-0.384766,0.95459,1.9063390583243232,-23.506451470088468,101.81549857278254,0.6198948621749878,-0.1410680115222931,-0.14780400693416595,0.7576169967651367
0f63bf27-f098-4841-be8f-101b7113d811,27b710de-cf4d-4085-97c5-044321799262,1760443460194753803,-3.723145,-0.549316,-3.969193,-0.04248,-0.395508,0.971191,1.8889631874366528,-23.52861106936719,101.66851062188096,0.6208212971687317,-0.1412617713212967,-0.14786425232887268,0.7568101286888123
0f63bf27-f098-4841-be8f-101b7113d811,27b710de-cf4d-4085-97c5-044321799262,1760443460205417803,-2.868652,-0.549316,-3.786087,-0.035156,-0.390137,0.963379,1.875743023681163,-23.544004144409364,101.50122688178826,0.6218927502632141,-0.14147312939167023,-0.1478317379951477,0.7558966875076294
0f63bf27-f098-4841-be8f-101b7113d811,27b710de-cf4d-4085-97c5-044321799262,1760443460216105803,-2.012253,-0.852585,-3.1147,-0.032227,-0.390625,0.962891,1.8688552459146182,-23.56122738054603,101.45317745089349,0.6221832036972046,-0.1415824145078659,-0.14792400598526,0.7556191682815552
0f63bf27-f098-4841-be8f-101b7113d811,27b710de-cf4d-4085-97c5-044321799262,1760443460226795803,-1.586914,-1.159668,-2.504349,-0.044922,-0.400391,0.956055,1.856204433960025,-23.570532229716235,101.3822437796175,0.6226249933242798,-0.14164072275161743,-0.14796674251556396,0.7552358508110046
0f63bf27-f098-4841-be8f-101b7113d811,27b710de-cf4d-4085-97c5-044321799262,1760443460237485803,-1.098633,-1.098633,-2.138138,-0.045898,-0.396484,0.946289,1.8424223680189447,-23.575390962412083,101.25862537872013,0.6234166026115417,-0.1417357325553894,-0.14792101085186005,0.75457364320755
0f63bf27-f098-4841-be8f-101b7113d811,27b710de-cf4d-4085-97c5-044321799262,1760443460245465803,-0.91362,-1.771927,-1.588821,-0.045898,-0.391113,0.939941,1.821481506804069,-23.577058291162526,101.10491569836043,0.6243994832038879,-0.14180529117584229,-0.14785589277744293,0.7537602186203003
0f63bf27-f098-4841-be8f-101b7113d811,27b710de-cf4d-4085-97c5-044321799262,1760443460253445803,-0.852585,-1.710892,-0.734329,-0.049316,-0.383789,0.954102,1.8138134304703764,-23.57684422355045,101.0216501621232,0.6249373555183411,-0.14186112582683563,-0.1477932184934616,0.7533161044120789
0f63bf27-f098-4841-be8f-101b7113d811,27b710de-cf4d-4085-97c5-044321799262,1760443460261425803,-0.793457,-2.258301,-0.429153,-0.035645,-0.392578,0.949707,1.7991803122319763,-23.573400728539934,100.92180708156727,0.6255781650543213,-0.14187505841255188,-0.14772669970989227,0.7527945041656494
0f63bf27-f098-4841-be8f-101b7113d811,27b710de-cf4d-4085-97c5-044321799262,1760443460269405803,-0.850677,-2.01416,0.059128,-0.037109,-0.393555,0.949707,1.7845282953878028,-23.571704023785546,100.80591917199185,0.6263220310211182,-0.14191900193691254,-0.1476520299911499,0.752182126045227
0f63bf27-f098-4841-be8f-101b7113d811,27b710de-cf4d-4085-97c5-044321799262,1760443460280080803,-0.488281,-2.319336,0.91362,-0.030762,-0.38623,0.95166,1.769778777923779,-23.56840608921993,100.73695939275854,0.6267589926719666,-0.1418931782245636,-0.14762552082538605,0.7518280744552612
0f63bf27-f098-4841-be8f-101b7113d811,27b710de-cf4d-4085-97c5-044321799262,1760443460290755803,-0.793457,-2.13623,1.279831,-0.036621,-0.400391,0.94043,1.7597804111706912,-23.56937372697533,100.66042731417517,0.6272470951080322,-0.1419314295053482,-0.14759182929992676,0.7514203190803528
0f63bf27-f098-4841-be8f-101b7113d811,27b710de-cf4d-4085-97c5-044321799262,1760443460301430803,-0.732422,-2.197266,1.462936,-0.032715,-0.397949,0.956055,1.7489624541491438,-23.568074595311845,100.56021306932705,0.6278914213180542,-0.14198249578475952,-0.1475183665752411,0.7508867979049683
0f63bf27-f098-4841-be8f-101b7113d811,27b710de-cf4d-4085-97c5-044321799262,1760443460312088803,-0.852585,-1.893997,1.768112,-0.034668,-0.394531,0.951172,1.7370306782855565,-23.564570016607274,100.50060687513955,0.6282702088356018,-0.1419619917869568,-0.1474868357181549,0.7505799531936646
0f63bf27-f098-4841-be8f-101b7113d811,27b710de-cf4d-4085-97c5-044321799262,1760443460322747803,-1.03569,-1.710892,1.768112,-0.030273,-0.385742,0.95166,1.728477118905453,-23.56472491167433,100.50446156778617,0.628233790397644,-0.14190185070037842,-0.14753952622413635,0.750611424446106
0f63bf27-f098-4841-be8f-101b7113d811,27b710de-cf4d-4085-97c5-044321799262,1760443460333406803,-1.037598,-1.525879,1.585007,-0.023437,-0.388184,0.944336,1.7189669909735341,-23.562097992626708,100.42617020274966,0.6287369728088379,-0.14192605018615723,-0.1474774330854416,0.7501976490020752
0f63bf27-f098-4841-be8f-101b7113d811,27b710de-cf4d-4085-97c5-044321799262,1760443460344077803,-1.218796,-0.669479,1.401901,-0.033203,-0.381348,0.946289,1.7085111717503827,-23.55725853418136,100.20619578464759,0.630167543888092,-0.14211413264274597,-0.14723041653633118,0.7490093111991882
0f63bf27-f098-4841-be8f-101b7113d811,27b710de-cf4d-4085-97c5-044321799262,1760443460354748803,-1.220703,0.12207,1.157761,-0.021973,-0.394043,0.947266,1.7119050145938337,-23.552061025685028,100.09785801173628,0.6308851838111877,-0.1422470211982727,-0.14704318344593048,0.748416543006897
0f63bf27-f098-4841-be8f-101b7113d811,27b710de-cf4d-4085-97c5-044321799262,1760443460365419803,-0.91362,0.364304,1.157761,-0.014648,-0.381348,0.944824,1.714554796972891,-23.5447827236868,99.9907645066856,0.6315953731536865,-0.1423618644475937,-0.14684782922267914,0.747833788394928
0f63bf27-f098-4841-be8f-101b7113d811,27b710de-cf4d-4085-97c5-044321799262,1760443460376089803,-0.547409,1.829147,0.608444,-0.015625,-0.381348,0.952637,1.7221276724805736,-23.535240374991968,99.88136019995876,0.6323287487030029,-0.14249910414218903,-0.14660750329494476,0.7472348809242249
0f63bf27-f098-4841-be8f-101b7113d811,27b710de-cf4d-4085-97c5-044321799262,1760443460386760803,-0.181198,2.195358,0.242233,-0.046387,-0.396973,0.956055,1.7359940751473593,-23.52644666421444,99.80089672743769,0.6328802108764648,-0.14264416694641113,-0.1463732123374939,0.7467861771583557
0f63bf27-f098-4841-be8f-101b7113d811,27b710de-cf4d-4085-97c5-044321799262,1760443460397431803,-0.061035,2.075195,0.120163,-0.038574,-0.391602,0.952148,1.7622136241671236,-23.51510623292348,99.76455762105986,0.6331623196601868,-0.14279921352863312,-0.14610882103443146,0.7465691566467285
0f63bf27-f098-4841-be8f-101b7113d811,27b710de-cf4d-4085-97c5-044321799262,1760443460405408803,-0.181198,2.195358,-0.123978,-0.050293,-0.388184,0.958496,1.811586904932639,-23.490352780383574,99.65573016459368,0.6339597105979919,-0.14312343299388885,-0.14553798735141754,0.7459415793418884
0f63bf27-f098-4841-be8f-101b7113d811,27b710de-cf4d-4085-97c5-044321799262,1760443460413385803,0.307083,2.378464,0.120163,-0.039062,-0.389648,0.95459,1.8384399595306378,-23.472899496055348,99.62442564097012,0.6342157125473022,-0.14324210584163666,-0.1452360451221466,0.7457600235939026
0f63bf27-f098-4841-be8f-101b7113d811,27b710de-cf4d-4085-97c5-044321799262,1760443460421362803,0.612259,2.317429,-0.429153,-0.043945,-0.384766,0.969727,1.8592277769425152,-23.45351665541087,99.50807574975865,0.635019063949585,-0.1434181034564972,-0.14484858512878418,0.7451176643371582
0f63bf27-f098-4841-be8f-101b7113d811,27b710de-cf4d-4085-97c5-044321799262,1760443460429339803,0.492096,2.075195,-0.490189,-0.035156,-0.369141,0.938477,1.878292667907479,-23.43523552023467,99.38969776513007,0.6358315348625183,-0.14359088242053986,-0.14447511732578278,0.7444638013839722
0f63bf27-f098-4841-be8f-101b7113d811,27b710de-cf4d-4085-97c5-044321799262,1760443460440056803,0.368118,1.829147,-0.795364,-0.043945,-0.376953,0.946777,1.8952777784584025,-23.41878930780626,99.28457596116951,0.6365526914596558,-0.14374299347400665,-0.14414159953594208,0.7438825964927673
0f63bf27-f098-4841-be8f-101b7113d811,27b710de-cf4d-4085-97c5-044321799262,1760443460450773803,0.0,2.13623,-1.527786,-0.041992,-0.372559,0.954102,1.9095766788555053,-23.401597682261908,99.18886823576466,0.6372095942497253,-0.14386126399040222,-0.143829807639122,0.7433574795722961
0f63bf27-f098-4841-be8f-101b7113d811,27b710de-cf4d-4085-97c5-044321799262,1760443460461490803,0.0,2.13623,-1.466751,-0.038574,-0.374023,0.949219,1.9261111721827624,-23.390297780367963,99.11462164443331,0.6377235651016235,-0.14399924874305725,-0.14357085525989532,0.7429399490356445
0f63bf27-f098-4841-be8f-101b7113d811,27b710de-cf4d-4085-97c5-044321799262,1760443460472129803,-0.793457,1.77002,-2.260208,-0.037109,-0.378906,0.949707,1.9389834523274776,-23.38905418638453,98.99513444537203,0.638515293598175,-0.1442253738641739,-0.1433407962322235,0.742260217666626
0f63bf27-f098-4841-be8f-101b7113d811,27b710de-cf4d-4085-97c5-044321799262,1760443460482767803,-1.401901,2.134323,-2.138138,-0.058105,-0.371582,0.949707,1.9535791070646051,-23.383224066993318,98.90452565144986,0.6391263008117676,-0.14440089464187622,-0.1431073397397995,0.741745114326477
0f63bf27-f098-4841-be8f-101b7113d811,27b710de-cf4d-4085-97c5-044321799262,1760443460493405803,-1.401901,1.829147,-2.382278,-0.049805,-0.384766,0.958496,1.9732992689948332,-23.381596341181382,98.86473333102421,0.639410138130188,-0.14456918835639954,-0.1429365575313568,0.7415005564689636
0f63bf27-f098-4841-be8f-101b7113d811,27b710de-cf4d-4085-97c5-044321799262,1760443460501389803,-1.523972,2.012253,-1.955032,-0.048828,-0.385742,0.952637,2.0039892931987793,-23.38061511002708,98.60540725570428,0.6411257386207581,-0.14508503675460815,-0.14243094623088837,0.7400142550468445
0f63bf27-f098-4841-be8f-101b7113d811,27b710de-cf4d-4085-97c5-044321799262,1760443460509376803,-1.890182,1.829147,-2.260208,-0.051758,-0.387207,0.953125,2.0196276120823926,-23.387300933023855,98.54808945302318,0.6415082812309265,-0.14529432356357574,-0.14231424033641815,0.7396640181541443
0f63bf27-f098-4841-be8f-101b7113d811,27b710de-cf4d-4085-97c5-044321799262,1760443460517363803,-2.315521,1.586914,-2.199173,-0.058594,-0.381836,0.95166,2.0368549506835527,-23.39684870472957,98.47075815059759,0.642018735408783,-0.14555449783802032,-0.1421816200017929,0.7391953468322754
0f63bf27-f098-4841-be8f-101b7113d811,27b710de-cf4d-4085-97c5-044321799262,1760443460525350803,-1.890182,1.340866,-2.260208,-0.061035,-0.383301,0.946289,2.055232336815447,-23.399907891231255,98.35757092377861,0.642768144607544,-0.14583031833171844,-0.14195454120635986,0.738533079624176
0f63bf27-f098-4841-be8f-101b7113d811,27b710de-cf4d-4085-97c5-044321799262,1760443460536034803,-2.258301,1.281738,-2.260208,-0.061523,-0.371094,0.945312,2.0693112468487334,-23.40722193649293,98.24634499860814,0.6434944868087769,-0.14609941840171814,-0.1417812705039978,0.7378803491592407
0f63bf27-f098-4841-be8f-101b7113d811,27b710de-cf4d-4085-97c5-044321799262,1760443460546718803,-2.073288,1.157761,-2.077103,-0.049316,-0.388184,0.957031,2.0817087265807173,-23.41378155371872,98.14382989281458,0.6441628336906433,-0.14634253084659576,-0.14162330329418182,0.7372790575027466
0f63bf27-f098-4841-be8f-101b7113d811,27b710de-cf4d-4085-97c5-044321799262,1760443460557402803,-1.953125,1.342773,-1.832962,-0.052246,-0.395508,0.948242,2.0951523750567147,-23.42095862578186,98.04852192426176,0.6447849273681641,-0.14658673107624054,-0.14147233963012695,0.73671555519104
0f63bf27-f098-4841-be8f-101b7113d811,27b710de-cf4d-4085-97c5-044321799262,1760443460568053803,-1.03569,0.795364,-1.649857,-0.031738,-0.387207,0.95166,2.103446253145074,-23.41803730027354,97.91624690081225,0.645648181438446,-0.1467868983745575,-0.14123742282390594,0.735964298248291
0f63bf27-f098-4841-be8f-101b7113d811,27b710de-cf4d-4085-97c5-044321799262,1760443460578705803,-0.732422,1.098633,-1.649857,-0.058594,-0.379883,0.969238,2.1106902133594376,-23.415547733344464,97.82720845427896,0.6462313532829285,-0.14692915976047516,-0.14106638729572296,0.7354567646980286
0f63bf27-f098-4841-be8f-101b7113d811,27b710de-cf4d-4085-97c5-044321799262,1760443460589357803,-0.793457,1.220703,-1.649857,-0.060059,-0.385254,0.964355,2.1204458186496273,-23.40861281555675,97.80498226595341,0.6463932394981384,-0.14698034524917603,-0.14093805849552155,0.7353288531303406
0f63bf27-f098-4841-be8f-101b7113d811,27b710de-cf4d-4085-97c5-044321799262,1760443460600034803,-0.242233,0.852585,-1.588821,-0.04248,-0.371582,0.961426,2.1430090885966107,-23.389416014639046,97.60949701655225,0.64769446849823,-0.14725758135318756,-0.14043575525283813,0.7342236638069153
0f63bf27-f098-4841-be8f-101b7113d811,27b710de-cf4d-4085-97c5-044321799262,1760443460610710803,-0.059128,1.401901,-1.527786,-0.060547,-0.402832,0.957519,2.1605079193694774,-23.382717849892767,97.54027418427285,0.648166298866272,-0.147416889667511,-0.14020460844039917,0.7338194251060486
0f63bf27-f098-4841-be8f-101b7113d811,27b710de-cf4d-4085-97c5-044321799262,1760443460621386803,0.123978,1.157761,-1.344681,-0.053711,-0.365723,0.958008,2.1752396417793536,-23.364649535751713,97.46569318723117,0.6486806273460388,-0.14750102162361145,-0.1399088054895401,0.7334043979644775
0f63bf27-f098-4841-be8f-101b7113d811,27b710de-cf4d-4085-97c5-044321799262,1760443460629412803,0.0,0.610352,-0.673294,-0.058105,-0.378906,0.953613,2.191699447427126,-23.34977407493697,97.38172935091576,0.6492534279823303,-0.14762525260448456,-0.1396116316318512,0.732928991317749
0f63bf27-f098-4841-be8f-101b7113d811,27b710de-cf4d-4085-97c5-044321799262,1760443460637439803,0.183105,0.488281,-0.307083,-0.055664,-0.37207,0.954102,2.2037816263974754,-23.334270400594924,97.28963280748654,0.6498731374740601,-0.14772748947143555,-0.1393246352672577,0.732413649559021
0f63bf27-f098-4841-be8f-101b7113d811,27b710de-cf4d-4085-97c5-044321799262,1760443460645466803,0.244141,0.427246,0.181198,-0.049316,-0.368652,0.955078,2.2095735763686952,-23.318546643914623,97.20642287141932,0.6504282355308533,-0.14777716994285583,-0.13908331096172333,0.7319566011428833
0f63bf27-f098-4841-be8f-101b7113d811,27b710de-cf4d-4085-97c5-044321799262,1760443460653493803,0.183105,0.12207,0.486374,-0.059082,-0.369141,0.959473,2.217466550111319,-23.301505070143822,97.14231538605014,0.6508649587631226,-0.14780943095684052,-0.13884621858596802,0.7316067814826965
0f63bf27-f098-4841-be8f-101b7113d811,27b710de-cf4d-4085-97c5-044321799262,1760443460664144803,0.366211,0.549316,0.974655,-0.053223,-0.367676,0.949707,2.22784285793399,-23.284749960244408,97.07873656108644,0.6513007879257202,-0.14785827696323395,-0.1385975331068039,0.7312561869621277
0f63bf27-f098-4841-be8f-101b7113d811,27b710de-cf4d-4085-97c5-044321799262,1760443460674795803,0.490189,0.364304,0.974655,-0.046875,-0.378418,0.955566,2.2381879991477223,-23.2688304222839,97.01349478820424,0.6517460942268372,-0.14791342616081238,-0.13835223019123077,0.7308946251869202
0f63bf27-f098-4841-be8f-101b7113d811,27b710de-cf4d-4085-97c5-044321799262,1760443460685446803,0.183105,0.427246,1.03569,-0.064941,-0.364746,0.958008,2.243908061296825,-23.254340944591746,96.99152965269205,0.6519081592559814,-0.1478947401046753,-0.13819827139377594,0.7307829856872559
0f63bf27-f098-4841-be8f-101b7113d811,27b710de-cf4d-4085-97c5-044321799262,1760443460693437803,0.551224,0.364304,0.974655,-0.056641,-0.36377,0.964844,2.2647002568961696,-23.222502599307127,96.87047666979534,0.6527379155158997,-0.14799341559410095,-0.13771921396255493,0.7301124930381775
0f63bf27-f098-4841-be8f-101b7113d811,27b710de-cf4d-4085-97c5-044321799262,1760443460701428803,0.183105,0.427246,0.974655,-0.058105,-0.364258,0.942871,2.2754548614595955,-23.210447021782052,96.78517508829586,0.6533066630363464,-0.1480962634086609,-0.13747037947177887,0.7296296954154968
0f63bf27-f098-4841-be8f-101b7113d811,27b710de-cf4d-4085-97c5-044321799262,1760443460709419803,-0.242233,0.547409,0.79155,-0.058594,-0.371094,0.946777,2.287244634596501,-23.201139042918246,96.70250079313963,0.6538566946983337,-0.1482177972793579,-0.1372365653514862,0.7291561961174011
0f63bf27-f098-4841-be8f-101b7113d811,27b710de-cf4d-4085-97c5-044321799262,1760443460725394803,-1.403809,0.610352,1.096725,-0.049316,-0.361328,0.945801,2.2974932955516314,-23.191519111610436,96.62076733138643,0.6543988585472107,-0.14832638204097748,-0.13701066374778748,0.7286900877952576
0f63bf27-f098-4841-be8f-101b7113d811,27b710de-cf4d-4085-97c5-044321799262,1760443460733378803,-1.403809,0.244141,0.669479,-0.049316,-0.392578,0.943359,2.3105288396713433,-23.18937813215853,96.54412343400499,0.6549038887023926,-0.14848871529102325,-0.13682322204113007,0.7282383441925049
0f63bf27-f098-4841-be8f-101b7113d811,27b710de-cf4d-4085-97c5-044321799262,1760443460741362803,-1.646042,0.059128,0.181198,-0.04248,-0.375,0.949707,2.3188793459450148,-23.194827479520573,96.46728695871698,0.6553963422775269,-0.14866434037685394,-0.1367107331752777,0.7277804613113403
0f63bf27-f098-4841-be8f-101b7113d811,27b710de-cf4d-4085-97c5-044321799262,1760443460749346803,-1.89209,0.610352,-0.185013,-0.042969,-0.370117,0.945801,2.3250288911221877,-23.19603153023407,96.43068022652491,0.655634880065918,-0.14875386655330658,-0.13663575053215027,0.7275614142417908
0f63bf27-f098-4841-be8f-101b7113d811,27b710de-cf4d-4085-97c5-044321799262,1760443460760032803,-1.829147,0.364304,-0.795364,-0.047363,-0.379395,0.953125,2.329718057204364,-23.20192010539012,96.37745920686486,0.6559721827507019,-0.1488804668188095,-0.13657745718955994,0.7272423505783081
0f63bf27-f098-4841-be8f-101b7113d811,27b710de-cf4d-4085-97c5-044321799262,1760443460770718803,-1.707077,0.181198,-0.795364,-0.047363,-0.371094,0.96875,2.3359495427002095,-23.209242612951172,96.28729873748503,0.6565439701080322,-0.14906896650791168,-0.13647136092185974,0.7267074584960938
0f63bf27-f098-4841-be8f-101b7113d811,27b710de-cf4d-4085-97c5-044321799262,1760443460781404803,-1.82724,0.610352,-1.405716,-0.050293,-0.37793,0.950195,2.341735258218735,-23.20955209811697,96.24335296506615,0.6568291783332825,-0.1491597294807434,-0.13638299703598022,0.7264476418495178
0f63bf27-f098-4841-be8f-101b7113d811,27b710de-cf4d-4085-97c5-044321799262,1760443460792086803,-1.403809,0.305176,-2.077103,-0.061035,-0.377441,0.960937,2.350472264021074,-23.2126359423293,96.07792788869634,0.6578843593597412,-0.1494293063879013,-0.13613703846931458,0.7254829406738281
0f63bf27-f098-4841-be8f-101b7113d811,27b710de-cf4d-4085-97c5-044321799262,1760443460802769803,-1.464844,0.610352,-2.077103,-0.049316,-0.375977,0.964355,2.351714685136695,-23.211932879045825,95.96575012004163,0.6585964560508728,-0.14956636726856232,-0.1359790712594986,0.7248378992080688
0f63bf27-f098-4841-be8f-101b7113d811,27b710de-cf4d-4085-97c5-044321799262,1760443460813452803,-1.218796,0.730515,-2.382278,-0.050781,-0.376465,0.962891,2.3590126529171,-23.208067420114368,95.84268066908895,0.6593872308731079,-0.1497364044189453,-0.13575175404548645,0.7241261005401611
0f63bf27-f098-4841-be8f-101b7113d811,27b710de-cf4d-4085-97c5-044321799262,1760443460821424803,-0.976562,0.610352,-2.321243,-0.065918,-0.372559,0.958496,2.363373403506598,-23.202566148511174,95.72823477310436,0.6601210236549377,-0.14986804127693176,-0.13554202020168304,0.7234693169593811
0f63bf27-f098-4841-be8f-101b7113d811,27b710de-cf4d-4085-97c5-044321799262,1760443460829396803,-0.427246,0.427246,-1.893997,-0.059082,-0.359863,0.957031,2.371290042911808,-23.19362501188172,95.63428168310634,0.6607326865196228,-0.14997799694538116,-0.1353166103363037,0.7229301333427429
0f63bf27-f098-4841-be8f-101b7113d811,27b710de-cf4d-4085-97c5-044321799262,1760443460837368803,-0.852585,0.181198,-1.955032,-0.061035,-0.380371,0.957519,2.3773840101060695,-23.17995719008278,95.56977932862694,0.6611610054969788,-0.15001443028450012,-0.13511015474796295,0.7225695848464966
0f63bf27-f098-4841-be8f-101b7113d811,27b710de-cf4d-4085-97c5-044321799262,1760443460845340803,-0.793457,0.061035,-1.161575,-0.070312,-0.366699,0.94873,2.38462447026584,-23.174840095344376,95.5693541059835,0.6611775755882263,-0.15003134310245514,-0.13503530621528625,0.7225648760795593
0f63bf27-f098-4841-be8f-101b7113d811,27b710de-cf4d-4085-97c5-044321799262,1760443460856024803,-1.03569,-0.062943,-0.673294,-0.069824,-0.368652,0.943359,2.3960028369009225,-23.167988555706174,95.54052015368478,0.6613799333572388,-0.15009787678718567,-0.13488835096359253,0.722393274307251
0f63bf27-f098-4841-be8f-101b7113d811,27b710de-cf4d-4085-97c5-044321799262,1760443460866708803,-1.403809,-0.061035,-0.307083,-0.069336,-0.363281,0.935547,2.4079776527866765,-23.16043219911217,95.4560756299599,0.6619340777397156,-0.15022943913936615,-0.13466055691242218,0.7219007015228271
0f63bf27-f098-4841-be8f-101b7113d811,27b710de-cf4d-4085-97c5-044321799262,1760443460877392803,-2.075195,-0.366211,0.120163,-0.073242,-0.364258,0.948242,2.4220457864532974,-23.15763908693325,95.38707431623196,0.6623880863189697,-0.1503830850124359,-0.13447102904319763,0.7214874625205994
0f63bf27-f098-4841-be8f-101b7113d811,27b710de-cf4d-4085-97c5-044321799262,1760443460888086803,-2.258301,-0.427246,0.730515,-0.069824,-0.367188,0.952637,2.4523247942008157,-23.165079617133603,95.2705074543654,0.663149356842041,-0.15075288712978363,-0.1341899335384369,0.7207630276679993
0f63bf27-f098-4841-be8f-101b7113d811,27b710de-cf4d-4085-97c5-044321799262,1760443460898780803,-2.622604,-0.490189,1.340866,-0.073242,-0.381348,0.942383,2.4679065487557454,-23.176549381063207,95.19662321556017,0.6636201739311218,-0.15100310742855072,-0.13407514989376068,0.7202985286712646
0f63bf27-f098-4841-be8f-101b7113d811,27b710de-cf4d-4085-97c5-044321799262,1760443460909474803,-2.866745,-0.612259,2.134323,-0.068848,-0.370117,0.952148,2.4823686846550954,-23.185846317651997,95.13402816789439,0.6640207171440125,-0.15122054517269135,-0.13396772742271423,0.7199035882949829
0f63bf27-f098-4841-be8f-101b7113d811,27b710de-cf4d-4085-97c5-044321799262,1760443460917449803,-3.051758,-1.159668,3.110886,-0.055664,-0.387207,0.960449,2.4972431953321905,-23.197430513202637,95.13330142641456,0.6640305519104004,-0.15138131380081177,-0.13395394384860992,0.7198632955551147
0f63bf27-f098-4841-be8f-101b7113d811,27b710de-cf4d-4085-97c5-044321799262,1760443460925426803,-2.68364,-1.10054,3.416061,-0.042969,-0.378906,0.955078,2.5050739947706973,-23.210102187987633,95.11292942048294,0.6641544103622437,-0.1515270322561264,-0.13396188616752625,0.7197169065475464
0f63bf27-f098-4841-be8f-101b7113d811,27b710de-cf4d-4085-97c5-044321799262,1760443460933403803,-2.563477,-1.647949,3.660202,-0.04834,-0.387207,0.966797,2.5079452714963946,-23.22122919925611,95.05322948887044,0.6645209789276123,-0.15167872607707977,-0.13393670320510864,0.7193511724472046
0f63bf27-f098-4841-be8f-101b7113d811,27b710de-cf4d-4085-97c5-044321799262,1760443460949380803,-2.441406,-2.13623,3.782272,-0.05957,-0.375977,0.961426,2.5135846076749555,-23.2314777652482,95.06916582325371,0.6644167900085449,-0.15175434947013855,-0.13398997485637665,0.7194215059280396
0f63bf27-f098-4841-be8f-101b7113d811,27b710de-cf4d-4085-97c5-044321799262,1760443460957382803,-2.195358,-2.382278,3.660202,-0.052734,-0.391113,0.962402,2.50756540367635,-23.239795603999063,95.0147590548358,0.6647425293922424,-0.15182796120643616,-0.13400545716285706,0.7191020846366882
0f63bf27-f098-4841-be8f-101b7113d811,27b710de-cf4d-4085-97c5-044321799262,1760443460965384803,-1.829147,-2.622604,3.538132,-0.047363,-0.385254,0.962402,2.4965817733367324,-23.24062396701469,94.9563596317151,0.6650952100753784,-0.15183210372924805,-0.13399705290794373,0.7187765836715698
0f63bf27-f098-4841-be8f-101b7113d811,27b710de-cf4d-4085-97c5-044321799262,1760443460973386803,-1.707077,-2.748489,3.293991,-0.029297,-0.377441,0.950195,2.479222689718729,-23.242204865057428,94.90761663506487,0.6653789281845093,-0.1517893224954605,-0.13404324650764465,0.7185144424438477
0f63bf27-f098-4841-be8f-101b7113d811,27b710de-cf4d-4085-97c5-044321799262,1760443460984034803,-1.157761,-2.382278,2.80571,-0.032715,-0.382812,0.958008,2.464553412006898,-23.23780498815296,94.87932210900834,0.665543794631958,-0.15170514583587646,-0.13406315445899963,0.7183758020401001
0f63bf27-f098-4841-be8f-101b7113d811,27b710de-cf4d-4085-97c5-044321799262,1760443460994682803,-1.218796,-2.134323,2.256393,-0.033691,-0.37793,0.944824,2.451750833890147,-23.23429990200578,94.83158159449728,0.6658317446708679,-0.15166059136390686,-0.13405218720436096,0.7181203365325928
0f63bf27-f098-4841-be8f-101b7113d811,27b710de-cf4d-4085-97c5-044321799262,1760443461005330803,-0.976562,-1.831055,1.462936,-0.029785,-0.39209,0.946289,2.4373404670066465,-23.234854362239417,94.75105722262452,0.6663187742233276,-0.15166769921779633,-0.13403287529945374,0.7176705598831177
0f63bf27-f098-4841-be8f-101b7113d811,27b710de-cf4d-4085-97c5-044321799262,1760443461016131803,-1.155853,-0.671387,-0.123978,-0.026367,-0.380371,0.9375,2.422325247251076,-23.228796501031816,94.69063572810117,0.666685938835144,-0.15160943567752838,-0.13400201499462128,0.7173476219177246
0f63bf27-f098-4841-be8f-101b7113d811,27b710de-cf4d-4085-97c5-044321799262,1760443461026931803,-1.401901,0.364304,-1.10054,-0.037598,-0.375488,0.933105,2.416594086078565,-23.222646078845358,94.67045538455817,0.6668120622634888,-0.1515617072582245,-0.13396985828876495,0.7172464728355408
0f63bf27-f098-4841-be8f-101b7113d811,27b710de-cf4d-4085-97c5-044321799262,1760443461037731803,-1.403809,0.915527,-1.466751,-0.040039,-0.386719,0.951172,2.4136734809416662,-23.224986582839946,94.58016704461315,0.6673710942268372,-0.1516624540090561,-0.13388216495513916,0.7167214155197144
0f63bf27-f098-4841-be8f-101b7113d811,27b710de-cf4d-4085-97c5-044321799262,1760443461045651803,-1.77002,1.281738,-2.504349,-0.036133,-0.369629,0.955566,2.4187967154097043,-23.232043618536444,94.48901751866165,0.6679394841194153,-0.1518416702747345,-0.13377608358860016,0.7161735892295837
0f63bf27-f098-4841-be8f-101b7113d811,27b710de-cf4d-4085-97c5-044321799262,1760443461053572803,-1.890182,1.829147,-2.748489,-0.046387,-0.376953,0.95166,2.4269676020299236,-23.239103003635147,94.4134535567165,0.6684136390686035,-0.15202167630195618,-0.13367271423339844,0.7157121896743774
0f63bf27-f098-4841-be8f-101b7113d811,27b710de-cf4d-4085-97c5-044321799262,1760443461061493803,-2.134323,1.646042,-3.175735,-0.055664,-0.374512,0.952148,2.43844823614453,-23.2472407214758,94.315458021153,0.6690301895141602,-0.15225465595722198,-0.13352683186531067,0.7151135206222534
0f63bf27-f098-4841-be8f-101b7113d811,27b710de-cf4d-4085-97c5-044321799262,1760443461069414803,-2.563477,2.075195,-3.053665,-0.058105,-0.364746,0.937012,2.4524641385517905,-23.259086361182504,94.19343158996884,0.669795036315918,-0.15255272388458252,-0.13335715234279633,0.7143653035163879
0f63bf27-f098-4841-be8f-101b7113d811,27b710de-cf4d-4085-97c5-044321799262,1760443461080075803,-3.171921,2.012253,-3.480911,-0.059082,-0.382324,0.942871,2.466842041124171,-23.27642180492143,94.0849573897856,0.6704692244529724,-0.15286891162395477,-0.13323742151260376,0.7136873006820679
0f63bf27-f098-4841-be8f-101b7113d811,27b710de-cf4d-4085-97c5-044321799262,1760443461090736803,-3.293991,1.523972,-3.175735,-0.074219,-0.375977,0.930176,2.4820398339505907,-23.295951718486748,94.005613797483,0.6709600687026978,-0.15316899120807648,-0.1331651210784912,0.7131749391555786
0f63bf27-f098-4841-be8f-101b7113d811,27b710de-cf4d-4085-97c5-044321799262,1760443461101397803,-3.234863,1.281738,-2.99263,-0.073242,-0.373535,0.946289,2.4973118543419637,-23.31476835288879,93.91848455446814,0.6714997887611389,-0.1534743756055832,-0.13307712972164154,0.7126175761222839
0f63bf27-f098-4841-be8f-101b7113d811,27b710de-cf4d-4085-97c5-044321799262,1760443461112067803,-3.721237,0.852585,-2.443314,-0.068848,-0.382812,0.942871,2.5095594989913423,-23.336288054880203,93.86471258446936,0.6718253493309021,-0.1537379026412964,-0.13306818902492523,0.7122554183006287
0f63bf27-f098-4841-be8f-101b7113d811,27b710de-cf4d-4085-97c5-044321799262,1760443461122735803,-4.02832,0.610352,-1.588821,-0.078125,-0.377441,0.942871,2.5226667480795313,-23.35717787288882,93.86021442154491,0.6718462109565735,-0.15394587814807892,-0.1331162452697754,0.7121818661689758
0f63bf27-f098-4841-be8f-101b7113d811,27b710de-cf4d-4085-97c5-044321799262,1760443461133403803,-4.02832,-0.244141,-0.97847,-0.071777,-0.375977,0.946777,2.5396407374583987,-23.378678650915788,93.81040044434766,0.6721524596214294,-0.15423406660556793,-0.1330844610929489,0.7118363976478577
0f63bf27-f098-4841-be8f-101b7113d811,27b710de-cf4d-4085-97c5-044321799262,1760443461144063803,-4.089355,-0.610352,-0.246048,-0.061035,-0.376953,0.958984,2.5579673106970717,-23.41849972819658,93.8236956585938,0.6720485687255859,-0.15456373989582062,-0.13324439525604248,0.7118330001831055
0f63bf27-f098-4841-be8f-101b7113d811,27b710de-cf4d-4085-97c5-044321799262,1760443461154721803,-4.02832,-1.037598,0.120163,-0.075195,-0.375,0.960937,2.5636936316283543,-23.438609136011973,93.8317611861759,0.6719835996627808,-0.1547067016363144,-0.13334770500659943,0.7118439078330994
0f63bf27-f098-4841-be8f-101b7113d811,27b710de-cf4d-4085-97c5-044321799262,1760443461165379803,-3.780365,-1.525879,0.608444,-0.067383,-0.380371,0.959473,2.562673301739101,-23.459882256663835,93.79757436356199,0.672171950340271,-0.15486370027065277,-0.1334407925605774,0.7116144299507141
0f63bf27-f098-4841-be8f-101b7113d811,27b710de-cf4d-4085-97c5-044321799262,1760443461173390803,-3.660202,-1.893997,1.401901,-0.053223,-0.381348,0.955078,2.5594633779356584,-23.48550323762952,93.75474705859689,0.6724066138267517,-0.15504249930381775,-0.13356217741966248,0.7113309502601624
0f63bf27-f098-4841-be8f-101b7113d811,27b710de-cf4d-4085-97c5-044321799262,1760443461181401803,-3.660202,-1.829147,1.707077,-0.073242,-0.390137,0.955078,2.5546949380575557,-23.50589066259592,93.70485269649619,0.6726887822151184,-0.15518955886363983,-0.1336502581834793,0.7110154628753662
0f63bf27-f098-4841-be8f-101b7113d811,27b710de-cf4d-4085-97c5-044321799262,1760443461189412803,-3.417969,-2.075195,1.890182,-0.052246,-0.401367,0.961426,2.554788510830582,-23.52596844097132,93.65053509858815,0.6730042099952698,-0.15537023544311523,-0.13370174169540405,0.7106677293777466
0f63bf27-f098-4841-be8f-101b7113d811,27b710de-cf4d-4085-97c5-044321799262,1760443461197423803,-3.234863,-2.01416,2.134323,-0.062988,-0.383789,0.964844,2.5480433387151122,-23.54234499103275,93.62873064220372,0.6731138825416565,-0.15544910728931427,-0.1338142305612564,0.710525393486023
0f63bf27-f098-4841-be8f-101b7113d811,27b710de-cf4d-4085-97c5-044321799262,1760443461208108803,-3.108978,-2.319336,2.134323,-0.054199,-0.387207,0.962891,2.5443936275180365,-23.557336761406557,93.6423210425286,0.6730091571807861,-0.15549778938293457,-0.13394787907600403,0.7105887532234192
0f63bf27-f098-4841-be8f-101b7113d811,27b710de-cf4d-4085-97c5-044321799262,1760443461218793803,-2.622604,-2.443314,2.317429,-0.056152,-0.385254,0.947266,2.5370899569701826,-23.57005292156314,93.69661842373702,0.6726500988006592,-0.15546290576457977,-0.13414399325847626,0.710899293422699
0f63bf27-f098-4841-be8f-101b7113d811,27b710de-cf4d-4085-97c5-044321799262,1760443461229478803,-2.563477,-2.685547,2.134323,-0.062012,-0.394531,0.967773,2.5315519488207814,-23.581979274485256,93.72116309164059,0.672478437423706,-0.1554691195487976,-0.13428443670272827,0.7110337615013123
0f63bf27-f098-4841-be8f-101b7113d811,27b710de-cf4d-4085-97c5-044321799262,1760443461240120803,-2.317429,-2.931595,2.256393,-0.05127,-0.388672,0.965332,2.5172448707203188,-23.598327497525013,93.67702206430795,0.672717809677124,-0.15552712976932526,-0.1344108134508133,0.7107707262039185
0f63bf27-f098-4841-be8f-101b7113d811,27b710de-cf4d-4085-97c5-044321799262,1760443461250761803,-1.829147,-3.236771,2.378464,-0.054687,-0.393555,0.960937,2.5027117075705414,-23.605971309938077,93.64957277432711,0.672862708568573,-0.15551364421844482,-0.1345067024230957,0.7106183767318726
0f63bf27-f098-4841-be8f-101b7113d811,27b710de-cf4d-4085-97c5-044321799262,1760443461261402803,-1.890182,-2.931595,2.378464,-0.048828,-0.392578,0.953613,2.4893478271105436,-23.611988424245176,93.6150928918794,0.6730542778968811,-0.15550626814365387,-0.13457602262496948,0.7104253768920898
0f63bf27-f098-4841-be8f-101b7113d811,27b710de-cf4d-4085-97c5-044321799262,1760443461269397803,-1.82724,-2.01416,2.134323,-0.044922,-0.387207,0.961426,2.4838670154501585,-23.618431889048406,93.57585533973835,0.6732840538024902,-0.155555859208107,-0.13459524512290955,0.7101931571960449
0f63bf27-f098-4841-be8f-101b7113d811,27b710de-cf4d-4085-97c5-044321799262,1760443461277392803,-1.218796,-2.260208,1.829147,-0.041504,-0.388672,0.955566,2.4737405472995593,-23.620120573674548,93.5506324139847,0.673426628112793,-0.155532568693161,-0.13463106751441956,0.7100562453269958
0f63bf27-f098-4841-be8f-101b7113d811,27b710de-cf4d-4085-97c5-044321799262,1760443461285387803,-1.03569,-1.710892,1.768112,-0.040527,-0.391602,0.939941,2.461838116274013,-23.619497149878224,93.55219740949612,0.6734036207199097,-0.15545333921909332,-0.1346992403268814,0.7100825309753418
0f63bf27-f098-4841-be8f-101b7113d811,27b710de-cf4d-4085-97c5-044321799262,1760443461301408803,-0.852585,-1.466751,1.768112,-0.031738,-0.381836,0.968262,2.447350295471257,-23.616309949432793,93.51844597956342,0.6735991835594177,-0.15538470447063446,-0.13471870124340057,0.7099083065986633
0f63bf27-f098-4841-be8f-101b7113d811,27b710de-cf4d-4085-97c5-044321799262,1760443461309434803,-1.037598,-1.525879,1.585007,-0.036133,-0.390625,0.951172,2.4392387159793762,-23.614254672020074,93.51471834364679,0.6736149787902832,-0.15532685816287994,-0.13474848866462708,0.7099003791809082
0f63bf27-f098-4841-be8f-101b7113d811,27b710de-cf4d-4085-97c5-044321799262,1760443461317460803,-0.852585,-1.10054,0.852585,-0.037598,-0.395996,0.961914,2.4349353651684833,-23.609573803502915,93.47888134677831,0.6738370060920715,-0.1553150713443756,-0.13469597697257996,0.70970219373703
0f63bf27-f098-4841-be8f-101b7113d811,27b710de-cf4d-4085-97c5-044321799262,1760443461325486803,-0.732422,-0.854492,1.03569,-0.053223,-0.39209,0.949707,2.436986135822015,-23.60738408676368,93.3975266904724,0.6743454933166504,-0.15541060268878937,-0.13455994427204132,0.7092238664627075
0f63bf27-f098-4841-be8f-101b7113d811,27b710de-cf4d-4085-97c5-044321799262,1760443461336125803,-0.91362,-0.795364,0.669479,-0.04248,-0.400391,0.946289,2.436045337893327,-23.60099557257328,93.31997200475243,0.674831211566925,-0.15545853972434998,-0.13442042469978333,0.7087777256965637
0f63bf27-f098-4841-be8f-101b7113d811,27b710de-cf4d-4085-97c5-044321799262,1760443461346764803,-0.730515,-1.157761,0.364304,-0.042969,-0.398926,0.946777,2.433476244612049,-23.595385918920744,93.25737912871043,0.6752213835716248,-0.15548330545425415,-0.13431565463542938,0.7084205150604248
0f63bf27-f098-4841-be8f-101b7113d811,27b710de-cf4d-4085-97c5-044321799262,1760443461357403803,-0.730515,-1.10054,0.120163,-0.049316,-0.397461,0.953125,2.437835178599604,-23.585979956536374,93.21470033676746,0.6755005717277527,-0.15550532937049866,-0.1341734230518341,0.7081764340400696
0f63bf27-f098-4841-be8f-101b7113d811,27b710de-cf4d-4085-97c5-044321799262,1760443461368097803,-0.667572,-1.037598,-0.123978,-0.055664,-0.385254,0.960449,2.4393349762433716,-23.57574277906321,93.16354517644898,0.6758295893669128,-0.155514657497406,-0.13403137028217316,0.7078873515129089
0f63bf27-f098-4841-be8f-101b7113d811,27b710de-cf4d-4085-97c5-044321799262,1760443461378791803,-0.364304,-0.917435,-0.062943,-0.052734,-0.39209,0.956543,2.4458962733218015,-23.56163661658787,93.10264003740164,0.6762288212776184,-0.15554392337799072,-0.13382214307785034,0.7075391411781311
0f63bf27-f098-4841-be8f-101b7113d811,27b710de-cf4d-4085-97c5-044321799262,1760443461389485803,-0.793457,-0.549316,-0.185013,-0.051758,-0.381836,0.939941,2.449628659833172,-23.551619676738646,93.11099625849195,0.6761925220489502,-0.1554986536502838,-0.1337490826845169,0.7075976133346558
0f63bf27-f098-4841-be8f-101b7113d811,27b710de-cf4d-4085-97c5-044321799262,1760443461397450803,-0.730515,-0.429153,-0.062943,-0.052734,-0.373535,0.939941,2.4610127103351234,-23.521579921204854,93.0019959562704,0.6769113540649414,-0.1555202603340149,-0.13334695994853973,0.7069811820983887
0f63bf27-f098-4841-be8f-101b7113d811,27b710de-cf4d-4085-97c5-044321799262,1760443461405417803,-1.098633,-0.366211,0.0,-0.039551,-0.374512,0.944336,2.4619798912612847,-23.5098431397622,92.9751902458257,0.6770906448364258,-0.15548871457576752,-0.13323184847831726,0.7068381309509277
0f63bf27-f098-4841-be8f-101b7113d811,27b710de-cf4d-4085-97c5-044321799262,1760443461413384803,-1.281738,0.061035,-0.246048,-0.04248,-0.381836,0.945801,2.4607682615550437,-23.50381852356508,92.94178672754082,0.677301824092865,-0.15548479557037354,-0.1331562101840973,0.7066509127616882
0f63bf27-f098-4841-be8f-101b7113d811,27b710de-cf4d-4085-97c5-044321799262,1760443461421351803,-1.281738,0.366211,-0.551224,-0.041992,-0.386719,0.958984,2.4627430840646136,-23.50310524971163,92.8894703436915,0.677627444267273,-0.15555356442928314,-0.13306909799575806,0.706339955329895
0f63bf27-f098-4841-be8f-101b7113d811,27b710de-cf4d-4085-97c5-044321799262,1760443461432035803,-1.281738,0.244141,-0.612259,-0.044922,-0.388672,0.956543,2.4656261842697464,-23.50327057669374,92.83261847972399,0.6779809594154358,-0.15563829243183136,-0.13297587633132935,0.7059995532035828
0f63bf27-f098-4841-be8f-101b7113d811,27b710de-cf4d-4085-97c5-044321799262,1760443461442719803,-1.403809,0.793457,-0.612259,-0.039551,-0.379883,0.95166,2.4698972294970685,-23.502436987561,92.76670102710906,0.6783928275108337,-0.15573616325855255,-0.1328558623790741,0.7056048512458801
0f63bf27-f098-4841-be8f-101b7113d811,27b710de-cf4d-4085-97c5-044321799262,1760443461453403803,-1.155853,0.12207,-0.917435,-0.049805,-0.390137,0.957031,2.470309954768072,-23.499547967352314,92.6950387828182,0.6788375973701477,-0.1558048129081726,-0.13273806869983673,0.7051839232444763
0f63bf27-f098-4841-be8f-101b7113d811,27b710de-cf4d-4085-97c5-044321799262,1760443461461415803,-1.218796,0.490189,-1.10054,-0.037598,-0.390137,0.947266,2.4707250377780103,-23.49906650297709,92.61447385037313,0.6793342232704163,-0.1558978110551834,-0.13262304663658142,0.7047066688537598
0f63bf27-f098-4841-be8f-101b7113d811,27b710de-cf4d-4085-97c5-044321799262,1760443461469429803,-0.976562,0.305176,-1.22261,-0.054687,-0.387695,0.947266,2.4758723567513448,-23.50059239247105,92.51888738208423,0.6799260973930359,-0.156048983335495,-0.13247187435626984,0.7041305899620056
0f63bf27-f098-4841-be8f-101b7113d811,27b710de-cf4d-4085-97c5-044321799262,1760443461477443803,-1.340866,0.307083,-1.466751,-0.05127,-0.379395,0.957031,2.480777948660369,-23.500630048582092,92.52186976809101,0.6799134016036987,-0.15607590973377228,-0.13244706392288208,0.7041414976119995
0f63bf27-f098-4841-be8f-101b7113d811,27b710de-cf4d-4085-97c5-044321799262,1760443461485457803,-1.523972,0.364304,-1.527786,-0.042969,-0.391602,0.948242,2.482482180246394,-23.498306556594617,92.50385262845732,0.6800286173820496,-0.1560935378074646,-0.13239800930023193,0.7040355801582336
0f63bf27-f098-4841-be8f-101b7113d811,27b710de-cf4d-4085-97c5-044321799262,1760443461496108803,-1.340866,0.242233,-1.466751,-0.060059,-0.391602,0.950195,2.486664229426964,-23.50176851840681,92.44160502263051,0.6804119944572449,-0.1562114804983139,-0.13230980932712555,0.703655481338501
0f63bf27-f098-4841-be8f-101b7113d811,27b710de-cf4d-4085-97c5-044321799262,1760443461506759803,-1.218796,-0.181198,-1.22261,-0.061035,-0.384766,0.959473,2.491429236239643,-23.499494637898287,92.40187910182095,0.6806638836860657,-0.15627321600914001,-0.1322132647037506,0.7034162282943726
0f63bf27-f098-4841-be8f-101b7113d811,27b710de-cf4d-4085-97c5-044321799262,1760443461517410803,-1.707077,-0.246048,-0.97847,-0.05957,-0.382812,0.950684,2.496392153763929,-23.500288992681124,92.39752356328249,0.6806954741477966,-0.15631337463855743,-0.1321827620267868,0.7033824920654297
0f63bf27-f098-4841-be8f-101b7113d811,27b710de-cf4d-4085-97c5-044321799262,1760443461525408803,-1.890182,-0.612259,-0.612259,-0.044922,-0.390137,0.943359,2.496592058239181,-23.50277710535429,92.34460032871695,0.6810177564620972,-0.15639027953147888,-0.13212476670742035,0.7030642628669739
0f63bf27-f098-4841-be8f-101b7113d811,27b710de-cf4d-4085-97c5-044321799262,1760443461533406803,-2.441406,-0.610352,-0.185013,-0.065918,-0.393555,0.944824,2.4957071271360896,-23.510333424962266,92.28440908628697,0.681377649307251,-0.1564987450838089,-0.132094606757164,0.7026969790458679
0f63bf27-f098-4841-be8f-101b7113d811,27b710de-cf4d-4085-97c5-044321799262,1760443461541404803,-2.68364,-0.795364,0.181198,-0.061523,-0.381836,0.942871,2.501082399411353,-23.521782735926248,92.22551998744167,0.6817322969436646,-0.15666702389717102,-0.1320529729127884,0.7023232579231262
0f63bf27-f098-4841-be8f-101b7113d811,27b710de-cf4d-4085-97c5-044321799262,1760443461549402803,-2.866745,-0.795364,0.486374,-0.060547,-0.393066,0.956543,2.5002697873922015,-23.5332248677827,92.20058506332343,0.6818715929985046,-0.15675821900367737,-0.13209444284439087,0.7021598815917969
0f63bf27-f098-4841-be8f-101b7113d811,27b710de-cf4d-4085-97c5-044321799262,1760443461560060803,-3.417969,-1.037598,1.096725,-0.046875,-0.383789,0.959961,2.5029776956126626,-23.549097905305004,92.18489840673207,0.6819533705711365,-0.15688647329807281,-0.13215497136116028,0.7020403742790222
0f63bf27-f098-4841-be8f-101b7113d811,27b710de-cf4d-4085-97c5-044321799262,1760443461570718803,-2.866745,-1.405716,1.585007,-0.052246,-0.381836,0.955078,2.503004054088569,-23.56555478082071,92.17518443126013,0.6819947957992554,-0.15699486434459686,-0.13224321603775024,0.7019592523574829
0f63bf27-f098-4841-be8f-101b7113d811,27b710de-cf4d-4085-97c5-044321799262,1760443461581376803,-2.929688,-1.159668,2.073288,-0.05957,-0.376953,0.963867,2.5038046465897197,-23.576209358084014,92.20104130860747,0.681825578212738,-0.15703272819519043,-0.1323397308588028,0.7020969390869141
0f63bf27-f098-4841-be8f-101b7113d811,27b710de-cf4d-4085-97c5-044321799262,1760443461589439803,-2.685547,-0.854492,2.256393,-0.050781,-0.38916,0.966797,2.519475757656295,-23.5972188090803,92.26912865178872,0.6814032793045044,-0.15717388689517975,-0.1324697583913803,0.702450692653656
0f63bf27-f098-4841-be8f-101b7113d811,27b710de-cf4d-4085-97c5-044321799262,1760443461597501803,-2.258301,-0.366211,2.317429,-0.043945,-0.38623,0.961426,2.5284607683713443,-23.5998786124165,92.24457509224794,0.6815612316131592,-0.15727299451828003,-0.1323990821838379,0.7022886276245117
0f63bf27-f098-4841-be8f-101b7113d811,27b710de-cf4d-4085-97c5-044321799262,1760443461605563803,-1.768112,-0.307083,2.073288,-0.037109,-0.374512,0.961426,2.5372349257517266,-23.596783374938024,92.2039358604537,0.6818237900733948,-0.15735545754432678,-0.13227196037769318,0.7020391821861267
0f63bf27-f098-4841-be8f-101b7113d811,27b710de-cf4d-4085-97c5-044321799262,1760443461613625803,-1.096725,0.364304,2.317429,-0.050293,-0.375,0.960449,2.552586451279414,-23.590468156347484,92.15659068715556,0.6821384429931641,-0.15746687352657318,-0.13207653164863586,0.7017452716827393
0f63bf27-f098-4841-be8f-101b7113d811,27b710de-cf4d-4085-97c5-044321799262,1760443461624203803,-1.218796,0.547409,2.561569,-0.052246,-0.376953,0.956055,2.5719324411338844,-23.58341221439816,92.11181851328296,0.6824426054954529,-0.15759527683258057,-0.13185620307922363,0.7014620900154114
0f63bf27-f098-4841-be8f-101b7113d811,27b710de-cf4d-4085-97c5-044321799262,1760443461634781803,-1.220703,0.610352,2.073288,-0.055176,-0.374512,0.962402,2.5934216218467427,-23.572603485419034,92.0659636166583,0.6827598214149475,-0.15771573781967163,-0.1315983533859253,0.7011747360229492
0f63bf27-f098-4841-be8f-101b7113d811,27b710de-cf4d-4085-97c5-044321799262,1760443461645359803,-0.852585,1.218796,2.195358,-0.062988,-0.386719,0.952637,2.6174930366512323,-23.565068708689253,92.04810781030302,0.6829049587249756,-0.15783904492855072,-0.13138380646705627,0.7010458707809448
0f63bf27-f098-4841-be8f-101b7113d811,27b710de-cf4d-4085-97c5-044321799262,1760443461656041803,-0.976562,1.464844,1.829147,-0.056641,-0.385254,0.961426,2.6463566220880947,-23.557195316518563,92.06981828521268,0.682813823223114,-0.15794430673122406,-0.1311931014060974,0.70114666223526
0f63bf27-f098-4841-be8f-101b7113d811,27b710de-cf4d-4085-97c5-044321799262,1760443461666726803,-1.220703,1.77002,1.462936,-0.061523,-0.386719,0.951172,2.674459465179016,-23.55235486597768,92.0450341165537,0.6830028891563416,-0.15811602771282196,-0.1309615522623062,0.7009670734405518
0f63bf27-f098-4841-be8f-101b7113d811,27b710de-cf4d-4085-97c5-044321799262,1760443461677411803,-1.098633,1.77002,1.03569,-0.059082,-0.376953,0.962891,2.7049479584449796,-23.54745780614451,92.03224708808101,0.6831212639808655,-0.15828822553157806,-0.13073192536830902,0.7008556723594666
0f63bf27-f098-4841-be8f-101b7113d811,27b710de-cf4d-4085-97c5-044321799262,1760443461688106803,-0.667572,1.403809,0.91362,-0.059082,-0.383301,0.947754,2.7530924958727327,-23.530274108271247,92.00335786640942,0.6833714842796326,-0.1585141271352768,-0.13029883801937103,0.7006413340568542
0f63bf27-f098-4841-be8f-101b7113d811,27b710de-cf4d-4085-97c5-044321799262,1760443461698801803,-0.488281,1.464844,0.547409,-0.057617,-0.367188,0.949707,2.764401181757788,-23.514364120098755,91.94585577877642,0.6837531328201294,-0.15855464339256287,-0.13005362451076508,0.7003053426742554
0f63bf27-f098-4841-be8f-101b7113d811,27b710de-cf4d-4085-97c5-044321799262,1760443461709496803,-0.181198,1.03569,0.425339,-0.062012,-0.370117,0.938477,2.770234988205114,-23.49870077567269,91.88332849250713,0.6841588020324707,-0.15856866538524628,-0.12983565032482147,0.6999463438987732
0f63bf27-f098-4841-be8f-101b7113d811,27b710de-cf4d-4085-97c5-044321799262,1760443461717674803,-0.488281,0.183105,-0.307083,-0.060547,-0.363281,0.927246,2.7742514649716274,-23.484178858959247,91.83127790795547,0.6844969987869263,-0.15856629610061646,-0.1296500861644745,0.6996505856513977
0f63bf27-f098-4841-be8f-101b7113d811,27b710de-cf4d-4085-97c5-044321799262,1760443461725853803,-1.157761,-0.001907,-1.161575,-0.048828,-0.375488,0.932617,2.7808112905034608,-23.47101742414135,91.79636597448683,0.6847318410873413,-0.15856799483299255,-0.1294814497232437,0.6994516253471375
0f63bf27-f098-4841-be8f-101b7113d811,27b710de-cf4d-4085-97c5-044321799262,1760443461734032803,-2.075195,-0.366211,-1.283646,-0.035156,-0.382812,0.922852,2.7797700545621895,-23.470820335367197,91.73604992220167,0.6850989460945129,-0.15862861275672913,-0.1294029802083969,0.6990928053855896
0f63bf27-f098-4841-be8f-101b7113d811,27b710de-cf4d-4085-97c5-044321799262,1760443461742211803,-2.929688,-0.427246,-2.016068,-0.053711,-0.374023,0.918457,2.7727061310288157,-23.481948927366236,91.69941696334682,0.6853023171424866,-0.15869276225566864,-0.1294630467891693,0.6988677382469177
0f63bf27-f098-4841-be8f-101b7113d811,27b710de-cf4d-4085-97c5-044321799262,1760443461752606803,-3.417969,-0.366211,-2.87056,-0.044922,-0.381348,0.934082,2.7616261412867495,-23.49976249815542,91.69699702788468,0.6852851510047913,-0.15873336791992188,-0.12963566184043884,0.6988433003425598
0f63bf27-f098-4841-be8f-101b7113d811,27b710de-cf4d-4085-97c5-044321799262,1760443461763001803,-4.268646,-0.244141,-2.931595,-0.052246,-0.381348,0.929687,2.747972872568391,-23.524224444751795,91.63077031505836,0.6856467723846436,-0.1588699072599411,-0.12977614998817444,0.6984314322471619
0f63bf27-f098-4841-be8f-101b7113d811,27b710de-cf4d-4085-97c5-044321799262,1760443461773396803,-4.882812,-0.427246,-3.602982,-0.041992,-0.401367,0.936035,2.737340452668707,-23.557537433100087,91.57878401430953,0.6859150528907776,-0.15906138718128204,-0.1299726366996765,0.6980876922607422
0f63bf27-f098-4841-be8f-101b7113d811,27b710de-cf4d-4085-97c5-044321799262,1760443461784044803,-5.187988,-0.732422,-3.847122,-0.060547,-0.399902,0.945312,2.7023559611829016,-23.63279572534043,91.50661350340592,0.6862320899963379,-0.15937639772891998,-0.13054457306861877,0.697597324848175
0f63bf27-f098-4841-be8f-101b7113d811,27b710de-cf4d-4085-97c5-044321799262,1760443461794692803,-4.94194,-0.917435,-4.091263,-0.050293,-0.385254,0.948242,2.684706221425007,-23.6664052186773,91.42347458551608,0.686680793762207,-0.1595630943775177,-0.13074110448360443,0.6970760822296143
0f63bf27-f098-4841-be8f-101b7113d811,27b710de-cf4d-4085-97c5-044321799262,1760443461805340803,-4.882812,-1.037598,-4.274368,-0.049316,-0.401855,0.949707,2.664146334124839,-23.706135377415826,91.36355596527693,0.6869776844978333,-0.15974226593971252,-0.1310247927904129,0.6966890692710876
0f63bf27-f098-4841-be8f-101b7113d811,27b710de-cf4d-4085-97c5-044321799262,1760443461813382803,-4.758835,-0.917435,-4.274368,-0.046875,-0.384277,0.94873,2.6439773815848193,-23.743623155065006,91.30778209066688,0.6872519254684448,-0.1599060744047165,-0.1312979757785797,0.6963294744491577
0f63bf27-f098-4841-be8f-101b7113d811,27b710de-cf4d-4085-97c5-044321799262,1760443461821424803,-4.94194,-0.97847,-4.091263,-0.047852,-0.398438,0.952637,2.6233398426501693,-23.776281853611778,91.25304268734723,0.6875243782997131,-0.16003747284412384,-0.13154564797878265,0.6959834098815918
0f63bf27-f098-4841-be8f-101b7113d811,27b710de-cf4d-4085-97c5-044321799262,1760443461829466803,-4.577637,-1.159668,-4.274368,-0.057129,-0.389648,0.950195,2.602060759683143,-23.810663777887765,91.14110332231475,0.6881409883499146,-0.1602412611246109,-0.13172763586044312,0.6952922940254211
0f63bf27-f098-4841-be8f-101b7113d811,27b710de-cf4d-4085-97c5-044321799262,1760443461837508803,-4.636765,-1.22261,-4.335403,-0.04834,-0.397949,0.957519,2.57816847140052,-23.844079746392577,91.06650808661907,0.6885284185409546,-0.16038095951080322,-0.13197138905525208,0.6948301196098328
0f63bf27-f098-4841-be8f-101b7113d811,27b710de-cf4d-4085-97c5-044321799262,1760443461848149803,-4.451752,-1.525879,-4.030228,-0.040039,-0.396973,0.952637,2.5508215398288625,-23.87540855997988,91.05188544237183,0.6885502338409424,-0.16041846573352814,-0.13230696320533752,0.6947359442710876
0f63bf27-f098-4841-be8f-101b7113d811,27b710de-cf4d-4085-97c5-044321799262,1760443461858790803,-4.331589,-1.157761,-3.969193,-0.058594,-0.393066,0.953613,2.524575825201113,-23.904620589368104,91.0050200579807,0.6887709498405457,-0.16048744320869446,-0.1325777769088745,0.6944494843482971
0f63bf27-f098-4841-be8f-101b7113d811,27b710de-cf4d-4085-97c5-044321799262,1760443461869431803,-3.90625,-1.586914,-4.030228,-0.037598,-0.407715,0.952148,2.5023558543940188,-23.93273109304079,90.90584135652587,0.6893141269683838,-0.1606351137161255,-0.13274426758289337,0.6938442587852478
0f63bf27-f098-4841-be8f-101b7113d811,27b710de-cf4d-4085-97c5-044321799262,1760443461880084803,-3.601074,-1.281738,-3.725052,-0.050781,-0.39502,0.960449,2.4595675707814957,-23.977513461847554,90.80479172734834,0.6898250579833984,-0.16076037287712097,-0.13313354551792145,0.693232536315918
0f63bf27-f098-4841-be8f-101b7113d811,27b710de-cf4d-4085-97c5-044321799262,1760443461890740803,-3.356934,-0.549316,-3.847122,-0.05127,-0.395508,0.955566,2.446260607307484,-23.993810999170893,90.74663593807378,0.6901426911354065,-0.16084472835063934,-0.133231520652771,0.6928778290748596
0f63bf27-f098-4841-be8f-101b7113d811,27b710de-cf4d-4085-97c5-044321799262,1760443461901396803,-2.929688,-0.427246,-3.725052,-0.050781,-0.398438,0.959961,2.4328463017034987,-24.00393505585343,90.683162130128,0.6904991865158081,-0.160897895693779,-0.13328497111797333,0.6924998760223389
0f63bf27-f098-4841-be8f-101b7113d811,27b710de-cf4d-4085-97c5-044321799262,1760443461909397803,-1.644135,-0.183105,-3.725052,-0.044434,-0.400879,0.96582,2.4239698690388893,-24.009740976136115,90.61759402022315,0.6908783316612244,-0.16095520555973053,-0.13328178226947784,0.6921089291572571
0f63bf27-f098-4841-be8f-101b7113d811,27b710de-cf4d-4085-97c5-044321799262,1760443461917399803,-1.401901,-0.307083,-3.725052,-0.048828,-0.396484,0.960937,2.4100543859999317,-24.012109587274352,90.5406805978562,0.6913238167762756,-0.16097480058670044,-0.13327209651470184,0.6916612386703491
0f63bf27-f098-4841-be8f-101b7113d811,27b710de-cf4d-4085-97c5-044321799262,1760443461925401803,-1.03569,-0.429153,-3.419876,-0.046875,-0.383301,0.956543,2.3972010407708075,-24.009957823262113,90.4706240983398,0.6917340755462646,-0.16096583008766174,-0.13323815166950226,0.6912596225738525
0f63bf27-f098-4841-be8f-101b7113d811,27b710de-cf4d-4085-97c5-044321799262,1760443461933403803,-0.730515,-0.490189,-3.053665,-0.038574,-0.391602,0.955566,2.3845669620339893,-24.00524562763617,90.40519219666511,0.6921194195747375,-0.16093750298023224,-0.13319386541843414,0.6908889412879944
0f63bf27-f098-4841-be8f-101b7113d811,27b710de-cf4d-4085-97c5-044321799262,1760443461944119803,-0.730515,-0.429153,-2.809525,-0.033691,-0.37793,0.958984,2.3676941009138606,-23.999055010539383,90.39411585220861,0.6921737194061279,-0.16081158816814423,-0.13324257731437683,0.6908544898033142
0f63bf27-f098-4841-be8f-101b7113d811,27b710de-cf4d-4085-97c5-044321799262,1760443461954835803,-1.03569,-0.429153,-2.87056,-0.02832,-0.374512,0.937012,2.3512922915238352,-23.988921276482813,90.37353185209311,0.6922904253005981,-0.16067597270011902,-0.1332511603832245,0.6907674074172974
0f63bf27-f098-4841-be8f-101b7113d811,27b710de-cf4d-4085-97c5-044321799262,1760443461965551803,-1.218796,-0.490189,-3.297806,-0.032227,-0.36084,0.929687,2.3309159757478,-23.981607286245456,90.32431198559881,0.6925718188285828,-0.16056658327579498,-0.1332608312368393,0.6905089020729065
0f63bf27-f098-4841-be8f-101b7113d811,27b710de-cf4d-4085-97c5-044321799262,1760443461973571803,-1.340866,-0.429153,-3.358841,-0.045898,-0.380859,0.949707,2.3153618331256305,-23.976562583100243,90.23423996324233,0.6931021213531494,-0.1605473756790161,-0.13319802284240723,0.6899932026863098
0f63bf27-f098-4841-be8f-101b7113d811,27b710de-cf4d-4085-97c5-044321799262,1760443461981591803,-1.401901,0.059128,-3.847122,-0.031738,-0.374512,0.922852,2.3008843301492212,-23.972541249865873,90.1515834175907,0.6935874819755554,-0.1605321615934372,-0.13314540684223175,0.6895190477371216
0f63bf27-f098-4841-be8f-101b7113d811,27b710de-cf4d-4085-97c5-044321799262,1760443461989611803,-1.644135,0.305176,-3.969193,-0.038086,-0.371582,0.939453,2.28395941236311,-23.972356669583167,90.08321115413192,0.6939793229103088,-0.1605086773633957,-0.13315097987651825,0.689129114151001
0f63bf27-f098-4841-be8f-101b7113d811,27b710de-cf4d-4085-97c5-044321799262,1760443461997631803,-2.378464,0.669479,-4.88472,-0.015137,-0.378418,0.947754,2.2705299629400977,-23.972259856563046,90.00733654258264,0.6944199800491333,-0.16051551699638367,-0.13312546908855438,0.6886883974075317
0f63bf27-f098-4841-be8f-101b7113d811,27b710de-cf4d-4085-97c5-044321799262,1760443462008232803,-2.746582,1.220703,-5.556107,-0.029297,-0.375977,0.941406,2.25111425874154,-23.978876053091934,89.91085201236967,0.6949693560600281,-0.16055075824260712,-0.13314808905124664,0.6881213784217834
0f63bf27-f098-4841-be8f-101b7113d811,27b710de-cf4d-4085-97c5-044321799262,1760443462018833803,-2.988815,1.283646,-6.471634,-0.035156,-0.382324,0.947266,2.23363307914533,-23.987048278158262,89.8441649340913,0.6953398585319519,-0.16057248413562775,-0.1332101672887802,0.6877298951148987
0f63bf27-f098-4841-be8f-101b7113d811,27b710de-cf4d-4085-97c5-044321799262,1760443462029434803,-3.416061,1.646042,-7.02095,-0.02832,-0.389648,0.950195,2.2191950447784867,-23.99939702452771,89.7680690221271,0.6957651972770691,-0.16064868867397308,-0.13326585292816162,0.6872709393501282
0f63bf27-f098-4841-be8f-101b7113d811,27b710de-cf4d-4085-97c5-044321799262,1760443462040183803,-3.90625,2.075195,-7.875443,-0.02832,-0.377441,0.950195,2.1871899505840733,-24.042669357688123,89.61042333547888,0.6966220736503601,-0.1609010100364685,-0.1335005909204483,0.6862983703613281
0f63bf27-f098-4841-be8f-101b7113d811,27b710de-cf4d-4085-97c5-044321799262,1760443462050931803,-4.268646,2.258301,-8.424759,-0.033691,-0.373047,0.935547,2.1719848935908717,-24.069364777354743,89.5181959667634,0.6971250772476196,-0.1610785275697708,-0.1336246132850647,0.6857215762138367
0f63bf27-f098-4841-be8f-101b7113d811,27b710de-cf4d-4085-97c5-044321799262,1760443462061679803,-4.577637,1.953125,-8.852005,-0.033691,-0.387207,0.943848,2.157785821500768,-24.101196384359476,89.3887512944798,0.6978451013565063,-0.16133680939674377,-0.13372085988521576,0.6849092841148376
0f63bf27-f098-4841-be8f-101b7113d811,27b710de-cf4d-4085-97c5-044321799262,1760443462069614803,-4.636765,1.646042,-9.523392,-0.046875,-0.388672,0.945312,2.142192190850796,-24.134821233195723,89.24038735237897,0.6986732482910156,-0.1616201251745224,-0.13380928337574005,0.6839803457260132
0f63bf27-f098-4841-be8f-101b7113d811,27b710de-cf4d-4085-97c5-044321799262,1760443462077550803,-4.758835,1.646042,-9.218216,-0.038574,-0.392578,0.953125,2.125477619247477,-24.164625867942654,89.07126711748835,0.6996269822120667,-0.16189837455749512,-0.13385173678398132,0.6829305291175842
0f63bf27-f098-4841-be8f-101b7113d811,27b710de-cf4d-4085-97c5-044321799262,1760443462085486803,-4.516602,1.464844,-9.157181,-0.044434,-0.397461,0.955566,2.1055067591608476,-24.196857780731985,88.97999061510939,0.7001089453697205,-0.16208142042160034,-0.13403823971748352,0.6823564171791077
0f63bf27-f098-4841-be8f-101b7113d811,27b710de-cf4d-4085-97c5-044321799262,1760443462093422803,-4.516602,1.403809,-9.03511,-0.066895,-0.402344,0.953613,2.0846463809862223,-24.22513950877044,88.88519384076498,0.7006149291992188,-0.16223974525928497,-0.1342012733221054,0.6817671060562134
0f63bf27-f098-4841-be8f-101b7113d811,27b710de-cf4d-4085-97c5-044321799262,1760443462104081803,-3.90625,1.77002,-8.6689,-0.048828,-0.399902,0.954102,2.0720794119643244,-24.254822756685375,88.7765126928696,0.7012108564376831,-0.16247251629829407,-0.1343020796775818,0.6810788512229919
0f63bf27-f098-4841-be8f-101b7113d811,27b710de-cf4d-4085-97c5-044321799262,1760443462114740803,-3.90625,1.953125,-8.485794,-0.055664,-0.404297,0.946777,2.062570270008229,-24.28019315626163,88.76726426070746,0.701224148273468,-0.1625809222459793,-0.13449913263320923,0.6810004115104675
0f63bf27-f098-4841-be8f-101b7113d811,27b710de-cf4d-4085-97c5-044321799262,1760443462125399803,-3.660202,1.890182,-8.119583,-0.041016,-0.401855,0.941894,2.0559427325970283,-24.307068016231856,88.73002796397898,0.7014052271842957,-0.16274850070476532,-0.13464778661727905,0.6807445287704468
0f63bf27-f098-4841-be8f-101b7113d811,27b710de-cf4d-4085-97c5-044321799262,1760443462136071803,-3.417969,2.380371,-7.631302,-0.058105,-0.401367,0.956055,2.055787914101278,-24.348905222728884,88.54774166516599,0.7024364471435547,-0.16321609914302826,-0.13463976979255676,0.6795699000358582
0f63bf27-f098-4841-be8f-101b7113d811,27b710de-cf4d-4085-97c5-044321799262,1760443462146743803,-3.171921,2.866745,-7.387161,-0.060547,-0.39502,0.95459,2.0623589154265454,-24.36478460694069,88.47014858908085,0.7028849124908447,-0.16344285011291504,-0.13458377122879028,0.67906254529953
0f63bf27-f098-4841-be8f-101b7113d811,27b710de-cf4d-4085-97c5-044321799262,1760443462157415803,-2.929688,2.929688,-6.77681,-0.072266,-0.407227,0.954102,2.0753903578715156,-24.378646176442142,88.38280239176733,0.7034007906913757,-0.16370698809623718,-0.1344618946313858,0.6784886717796326
0f63bf27-f098-4841-be8f-101b7113d811,27b710de-cf4d-4085-97c5-044321799262,1760443462168110803,-2.195358,2.622604,-5.739212,-0.069336,-0.399414,0.951172,2.0863948077471903,-24.39170377701352,88.29661150508028,0.7039079666137695,-0.1639527827501297,-0.1343490034341812,0.6779254674911499
0f63bf27-f098-4841-be8f-101b7113d811,27b710de-cf4d-4085-97c5-044321799262,1760443462178805803,-2.500534,2.378464,-5.311966,-0.070312,-0.403809,0.943359,2.1027186554491646,-24.400071484504075,88.21797884310408,0.7043819427490234,-0.16419248282909393,-0.1341859996318817,0.6774072051048279
0f63bf27-f098-4841-be8f-101b7113d811,27b710de-cf4d-4085-97c5-044321799262,1760443462189500803,-2.622604,2.317429,-4.640579,-0.074219,-0.395508,0.936523,2.1170341931718917,-24.411242751266766,88.16473108155463,0.7046998143196106,-0.16440756618976593,-0.1340882033109665,0.6770437359809875
0f63bf27-f098-4841-be8f-101b7113d811,27b710de-cf4d-4085-97c5-044321799262,1760443462197464803,-2.317429,1.829147,-4.457474,-0.077148,-0.405273,0.939453,2.1510884814072493,-24.43322719327356,88.06497333979765,0.7053020000457764,-0.16485950350761414,-0.13386628031730652,0.6763503551483154
0f63bf27-f098-4841-be8f-101b7113d811,27b710de-cf4d-4085-97c5-044321799262,1760443462205429803,-2.561569,1.646042,-4.213333,-0.057129,-0.400391,0.932617,2.1626140040752198,-24.445028976607407,88.04414799200289,0.7054240107536316,-0.16502392292022705,-0.1338355988264084,0.6761890649795532
0f63bf27-f098-4841-be8f-101b7113d811,27b710de-cf4d-4085-97c5-044321799262,1760443462213394803,-2.622604,1.646042,-3.664017,-0.056152,-0.397461,0.941406,2.1762473245328415,-24.45871531740613,88.06853889685264,0.7052793502807617,-0.1651594638824463,-0.1338682770729065,0.6763004064559937
0f63bf27-f098-4841-be8f-101b7113d811,27b710de-cf4d-4085-97c5-044321799262,1760443462221359803,-2.868652,1.281738,-3.358841,-0.061035,-0.394043,0.942383,2.184944687229683,-24.47479971913515,88.01141189484719,0.705606997013092,-0.1653757393360138,-0.1338280588388443,0.6759136319160461
0f63bf27-f098-4841-be8f-101b7113d811,27b710de-cf4d-4085-97c5-044321799262,1760443462229383803,-2.68364,1.218796,-3.236771,-0.055664,-0.405273,0.936035,2.1958982229509973,-24.490224634801347,87.94374990319825,0.7059999704360962,-0.1656135618686676,-0.13375461101531982,0.6754595041275024
0f63bf27-f098-4841-be8f-101b7113d811,27b710de-cf4d-4085-97c5-044321799262,1760443462237407803,-2.746582,1.281738,-2.748489,-0.05127,-0.397949,0.957519,2.2063554909573333,-24.49909946949391,87.87619231474655,0.7063994407653809,-0.1658082753419876,-0.1336452215909958,0.6750155091285706
0f63bf27-f098-4841-be8f-101b7113d811,27b710de-cf4d-4085-97c5-044321799262,1760443462245431803,-2.563477,0.732422,-2.626419,-0.061035,-0.398926,0.945801,2.216783194418706,-24.510094750319393,87.84267448133568,0.7065955996513367,-0.16597601771354675,-0.133597731590271,0.6747783422470093
0f63bf27-f098-4841-be8f-101b7113d811,27b710de-cf4d-4085-97c5-044321799262,1760443462253455803,-2.317429,0.669479,-2.321243,-0.056641,-0.404785,0.942383,2.226481523605831,-24.516565084953847,87.81172900603656,0.7067812085151672,-0.16610875725746155,-0.13353151082992554,0.6745644211769104
0f63bf27-f098-4841-be8f-101b7113d811,27b710de-cf4d-4085-97c5-044321799262,1760443462264106803,-1.953125,0.915527,-1.832962,-0.075684,-0.394531,0.942383,2.2387017386799206,-24.52135876988183,87.77951206222374,0.7069792151451111,-0.16624754667282104,-0.1334378719329834,0.6743412017822266
0f63bf27-f098-4841-be8f-101b7113d811,27b710de-cf4d-4085-97c5-044321799262,1760443462274757803,-1.890182,0.547409,-1.955032,-0.067871,-0.388184,0.947266,2.2507361819492373,-24.52479816237095,87.76282524893529,0.7070872187614441,-0.1663588285446167,-0.13335981965065002,0.6742159724235535
0f63bf27-f098-4841-be8f-101b7113d811,27b710de-cf4d-4085-97c5-044321799262,1760443462285408803,-1.708984,0.610352,-1.771927,-0.049316,-0.406738,0.950684,2.2599244221752945,-24.528388552439615,87.76474938524017,0.707082211971283,-0.16643261909484863,-0.13332723081111908,0.674209475517273
0f63bf27-f098-4841-be8f-101b7113d811,27b710de-cf4d-4085-97c5-044321799262,1760443462296076803,-1.157761,0.490189,-1.649857,-0.062012,-0.397949,0.953125,2.272179452532522,-24.528467453545233,87.74888858458172,0.707189679145813,-0.16652365028858185,-0.13322903215885162,0.6740936636924744
0f63bf27-f098-4841-be8f-101b7113d811,27b710de-cf4d-4085-97c5-044321799262,1760443462306744803,-1.401901,0.547409,-1.588821,-0.068848,-0.406738,0.947266,2.283823705119804,-24.52369361610088,87.74752711815263,0.7072170376777649,-0.16656450927257538,-0.1331268548965454,0.6740750670433044
0f63bf27-f098-4841-be8f-101b7113d811,27b710de-cf4d-4085-97c5-044321799262,1760443462317412803,-1.464844,0.366211,-1.649857,-0.052734,-0.394531,0.952148,2.2970753141678992,-24.523835582881254,87.77119825407362,0.7070930004119873,-0.16661584377288818,-0.13308033347129822,0.6742016673088074
0f63bf27-f098-4841-be8f-101b7113d811,27b710de-cf4d-4085-97c5-044321799262,1760443462328078803,-1.523972,0.181198,-1.283646,-0.061035,-0.393555,0.946289,2.3107652715535782,-24.516909875350684,87.7458574628638,0.7072663903236389,-0.1666834056377411,-0.1329178810119629,0.6740351319313049
0f63bf27-f098-4841-be8f-101b7113d811,27b710de-cf4d-4085-97c5-044321799262,1760443462338744803,-1.464844,-0.183105,-1.283646,-0.052246,-0.402832,0.954102,2.311496271224524,-24.519524888893596,87.71262385929715,0.7074595093727112,-0.1667422503232956,-0.1328805387020111,0.6738252639770508
0f63bf27-f098-4841-be8f-101b7113d811,27b710de-cf4d-4085-97c5-044321799262,1760443462349410803,-1.523972,-0.181198,-0.795364,-0.054687,-0.393555,0.952637,2.3136009333321037,-24.517018777471886,87.67795270029934,0.7076688408851624,-0.16677947342395782,-0.13280221819877625,0.6736116409301758
0f63bf27-f098-4841-be8f-101b7113d811,27b710de-cf4d-4085-97c5-044321799262,1760443462360074803,-1.890182,-0.795364,-1.039505,-0.065918,-0.397949,0.9375,2.314605804506372,-24.51774307810066,87.6358925544368,0.7079163193702698,-0.16683855652809143,-0.1327390819787979,0.6733493208885193
0f63bf27-f098-4841-be8f-101b7113d811,27b710de-cf4d-4085-97c5-044321799262,1760443462370740803,-1.89209,-0.671387,-0.8564,-0.046875,-0.398438,0.936523,2.3169649875884675,-24.52441771596228,87.60749142616864,0.7080777883529663,-0.16692620515823364,-0.13272272050380707,0.6731610298156738
0f63bf27-f098-4841-be8f-101b7113d811,27b710de-cf4d-4085-97c5-044321799262,1760443462381406803,-2.563477,-0.671387,-0.8564,-0.053223,-0.407715,0.9375,2.313953197376697,-24.529626515803017,87.60142379366525,0.708103597164154,-0.16694745421409607,-0.13276337087154388,0.6731206178665161
0f63bf27-f098-4841-be8f-101b7113d811,27b710de-cf4d-4085-97c5-044321799262,1760443462389410803,-2.561569,-0.612259,-0.97847,-0.057617,-0.408691,0.9375,2.309192555654688,-24.553362986770306,87.58827024334691,0.7081463932991028,-0.16708019375801086,-0.13291431963443756,0.6730128526687622
0f63bf27-f098-4841-be8f-101b7113d811,27b710de-cf4d-4085-97c5-044321799262,1760443462397414803,-2.866745,-0.612259,-0.917435,-0.054687,-0.404785,0.937988,2.3041245983312004,-24.569107521771407,87.56110713703171,0.7082808017730713,-0.1671784371137619,-0.13299933075904846,0.6728302240371704
0f63bf27-f098-4841-be8f-101b7113d811,27b710de-cf4d-4085-97c5-044321799262,1760443462405418803,-2.92778,-0.97847,-0.734329,-0.041016,-0.411133,0.942383,2.297103218341069,-24.584235572137967,87.57307503717922,0.7081838846206665,-0.16721603274345398,-0.13314983248710632,0.6728931069374084
0f63bf27-f098-4841-be8f-101b7113d811,27b710de-cf4d-4085-97c5-044321799262,1760443462413422803,-2.929688,-0.732422,-0.97847,-0.047363,-0.407715,0.945312,2.2950118775255626,-24.595608437670467,87.56552138674068,0.7082118988037109,-0.16728222370147705,-0.13321912288665771,0.6728335022926331
0f63bf27-f098-4841-be8f-101b7113d811,27b710de-cf4d-4085-97c5-044321799262,1760443462424079803,-2.441406,-1.159668,-0.795364,-0.053711,-0.398438,0.943359,2.290002952271043,-24.601106068005876,87.52609020977764,0.708430826663971,-0.16733236610889435,-0.13322508335113525,0.6725893020629883
0f63bf27-f098-4841-be8f-101b7113d811,27b710de-cf4d-4085-97c5-044321799262,1760443462434736803,-2.378464,-0.795364,-0.734329,-0.059082,-0.395996,0.950684,2.2901671606251615,-24.602766167131275,87.49431116781584,0.7086154818534851,-0.1673804521560669,-0.13318748772144318,0.6723902225494385
0f63bf27-f098-4841-be8f-101b7113d811,27b710de-cf4d-4085-97c5-044321799262,1760443462445393803,-1.953125,-1.037598,-0.246048,-0.055664,-0.411133,0.957031,2.2891151713717384,-24.607064698898615,87.48129906352692,0.7086853384971619,-0.1674157679080963,-0.13320043683052063,0.6723052263259888
0f63bf27-f098-4841-be8f-101b7113d811,27b710de-cf4d-4085-97c5-044321799262,1760443462453380803,-1.77002,-1.098633,-0.307083,-0.05957,-0.407227,0.951172,2.2874064083341246,-24.607596798434248,87.49211562887224,0.708619236946106,-0.1673964262008667,-0.13322995603084564,0.67237389087677
0f63bf27-f098-4841-be8f-101b7113d811,27b710de-cf4d-4085-97c5-044321799262,1760443462461367803,-1.157761,-1.405716,-0.123978,-0.041992,-0.406738,0.963867,2.2803255782139624,-24.600113427099124,87.48690166872578,0.7086507678031921,-0.1673150509595871,-0.1332218199968338,0.6723625063896179
0f63bf27-f098-4841-be8f-101b7113d811,27b710de-cf4d-4085-97c5-044321799262,1760443462469354803,-1.096725,-1.466751,0.0,-0.057617,-0.399902,0.957519,2.2745908889977766,-24.59335984934023,87.5126296583879,0.708501398563385,-0.16721005737781525,-0.13325484097003937,0.6725395321846008
0f63bf27-f098-4841-be8f-101b7113d811,27b710de-cf4d-4085-97c5-044321799262,1760443462477341803,-1.157761,-1.646042,0.181198,-0.048828,-0.401367,0.950684,2.2697394526674195,-24.58719406516491,87.58529978030097,0.7080766558647156,-0.16705924272537231,-0.1333542913198471,0.6730044484138489
0f63bf27-f098-4841-be8f-101b7113d811,27b710de-cf4d-4085-97c5-044321799262,1760443462488056803,-1.03569,-1.893997,0.059128,-0.050293,-0.402344,0.944336,2.262342703408307,-24.584590710562264,87.6180851482823,0.7078786492347717,-0.1669616848230362,-0.13343234360218048,0.6732214093208313
0f63bf27-f098-4841-be8f-101b7113d811,27b710de-cf4d-4085-97c5-044321799262,1760443462498771803,-1.157761,-1.893997,0.608444,-0.055664,-0.397949,0.944824,2.255204147747303,-24.580855486814876,87.59415219177104,0.708015501499176,-0.16692472994327545,-0.1334194391965866,0.6730892062187195
0f63bf27-f098-4841-be8f-101b7113d811,27b710de-cf4d-4085-97c5-044321799262,1760443462509486803,-1.401901,-2.077103,0.669479,-0.047363,-0.405273,0.946777,2.2493333362435317,-24.58267381553978,87.60694657343137,0.7079312801361084,-0.16688649356365204,-0.1334851235151291,0.6731742024421692
0f63bf27-f098-4841-be8f-101b7113d811,27b710de-cf4d-4085-97c5-044321799262,1760443462520103803,-2.01416,-2.01416,0.852585,-0.039551,-0.385254,0.943848,2.242742977686594,-24.58503343204509,87.61462397810755,0.7078756093978882,-0.16685327887535095,-0.1335510015487671,0.6732279658317566
0f63bf27-f098-4841-be8f-101b7113d811,27b710de-cf4d-4085-97c5-044321799262,1760443462530721803,-1.953125,-1.77002,0.608444,-0.062012,-0.403809,0.953613,2.2339747829921124,-24.584869103199562,87.6071253966612,0.7079096436500549,-0.16680949926376343,-0.13359327614307404,0.6731946468353271
0f63bf27-f098-4841-be8f-101b7113d811,27b710de-cf4d-4085-97c5-044321799262,1760443462541339803,-2.134323,-1.588821,0.852585,-0.046875,-0.391113,0.93457,2.233602720346963,-24.58694668835287,87.58790697130227,0.7080195546150208,-0.16684246063232422,-0.13357990980148315,0.6730734705924988
0f63bf27-f098-4841-be8f-101b7113d811,27b710de-cf4d-4085-97c5-044321799262,1760443462549354803,-2.197266,-1.525879,0.91362,-0.049805,-0.396484,0.958984,2.2283764245194115,-24.59167084459123,87.56877258939795,0.7081200480461121,-0.16686302423477173,-0.13361233472824097,0.6729562282562256
0f63bf27-f098-4841-be8f-101b7113d811,27b710de-cf4d-4085-97c5-044321799262,1760443462557370803,-2.441406,-1.77002,1.03569,-0.045898,-0.395508,0.943848,2.2232100924490443,-24.599528436005716,87.5647042285404,0.7081282734870911,-0.1668855845928192,-0.1336848884820938,0.6729276180267334
0f63bf27-f098-4841-be8f-101b7113d811,27b710de-cf4d-4085-97c5-044321799262,1760443462565386803,-2.685547,-1.342773,1.096725,-0.044434,-0.399902,0.956055,2.2173412471047924,-24.603502741277456,87.55986509972782,0.7081449627876282,-0.16688112914562225,-0.13373765349388123,0.6729006767272949
0f63bf27-f098-4841-be8f-101b7113d811,27b710de-cf4d-4085-97c5-044321799262,1760443462573402803,-2.258301,-1.586914,0.852585,-0.055664,-0.39502,0.952637,2.2137428156042995,-24.609728661905752,87.60974517541294,0.7078401446342468,-0.16683991253376007,-0.13386940956115723,0.6732053160667419
0f63bf27-f098-4841-be8f-101b7113d811,27b710de-cf4d-4085-97c5-044321799262,1760443462584088803,-2.134323,-1.955032,1.03569,-0.045898,-0.400391,0.954102,2.206607010167006,-24.616050733447402,87.63399926174797,0.7076815366744995,-0.1668083667755127,-0.13398626446723938,0.6733566522598267
0f63bf27-f098-4841-be8f-101b7113d811,27b710de-cf4d-4085-97c5-044321799262,1760443462594774803,-1.89209,-1.708984,0.852585,-0.025879,-0.402832,0.949219,2.1971571340669476,-24.618811207986916,87.61094776570708,0.7078025341033936,-0.1667967140674591,-0.13402743637561798,0.673224151134491
0f63bf27-f098-4841-be8f-101b7113d811,27b710de-cf4d-4085-97c5-044321799262,1760443462605460803,-1.707077,-1.466751,0.669479,-0.052734,-0.404785,0.937988,2.194012801969572,-24.618157036387647,87.57880037928074,0.7079885005950928,-0.16681182384490967,-0.13399618864059448,0.6730310916900635
0f63bf27-f098-4841-be8f-101b7113d811,27b710de-cf4d-4085-97c5-044321799262,1760443462616092803,-1.464844,-2.075195,0.669479,-0.054687,-0.407227,0.946289,2.186860767993383,-24.616605551230357,87.565268406356,0.7080615162849426,-0.1667761504650116,-0.13401149213314056,0.6729599833488464
0f63bf27-f098-4841-be8f-101b7113d811,27b710de-cf4d-4085-97c5-044321799262,1760443462626725803,-0.852585,-2.443314,0.852585,-0.041504,-0.401855,0.941406,2.1801220620882686,-24.61573040600352,87.58326014976562,0.7079490423202515,-0.16671015322208405,-0.1340741217136383,0.6730822324752808
0f63bf27-f098-4841-be8f-101b7113d811,27b710de-cf4d-4085-97c5-044321799262,1760443462637358803,-1.340866,-2.260208,0.669479,-0.039551,-0.38916,0.943848,2.1658886866586022,-24.610708185179128,87.58879256772116,0.7079060673713684,-0.16658928990364075,-0.13414034247398376,0.6731441617012024
0f63bf27-f098-4841-be8f-101b7113d811,27b710de-cf4d-4085-97c5-044321799262,1760443462645389803,-1.098633,-2.807617,1.03569,-0.059082,-0.402832,0.942383,2.1378261112838977,-24.60270387578626,87.6064950493899,0.707779049873352,-0.16635464131832123,-0.13429197669029236,0.6733054518699646
0f63bf27-f098-4841-be8f-101b7113d811,27b710de-cf4d-4085-97c5-044321799262,1760443462653422803,-1.155853,-2.685547,1.218796,-0.052246,-0.400879,0.94043,2.1268085558650567,-24.6037842147222,87.625848043543,0.7076510787010193,-0.166273832321167,-0.13439451158046722,0.6734394431114197
0f63bf27-f098-4841-be8f-101b7113d811,27b710de-cf4d-4085-97c5-044321799262,1760443462661455803,-1.281738,-3.234863,1.401901,-0.05957,-0.402832,0.9375,2.1145383395972845,-24.60165488722572,87.61451426637164,0.7077059149742126,-0.16620196402072906,-0.13444122672080994,0.67339026927948
0f63bf27-f098-4841-be8f-101b7113d811,27b710de-cf4d-4085-97c5-044321799262,1760443462669488803,-1.464844,-3.295898,1.768112,-0.036621,-0.407715,0.941406,2.0971893933688923,-24.6060498744778,87.64129196117102,0.7075227499008179,-0.16609549522399902,-0.13461323082447052,0.6735746264457703
0f63bf27-f098-4841-be8f-101b7113d811,27b710de-cf4d-4085-97c5-044321799262,1760443462681454803,-1.953125,-3.356934,2.256393,-0.046387,-0.417969,0.939453,2.080693864917045,-24.612752943135522,87.66551340019724,0.7073526978492737,-0.16601110994815826,-0.13478989899158478,0.6737387180328369
0f63bf27-f098-4841-be8f-101b7113d811,27b710de-cf4d-4085-97c5-044321799262,1760443462693420803,-2.197266,-3.173828,2.378464,-0.045898,-0.395508,0.934082,2.0664444378845856,-24.62035800490726,87.67950326095739,0.7072442770004272,-0.16595745086669922,-0.13494320213794708,0.673835039138794
0f63bf27-f098-4841-be8f-101b7113d811,27b710de-cf4d-4085-97c5-044321799262,1760443462705386803,-2.441406,-3.234863,2.622604,-0.056641,-0.40332,0.946777,2.0556728615031306,-24.626536625451457,87.69535500365839,0.7071307301521301,-0.16591328382492065,-0.13506926596164703,0.6739397644996643
0f63bf27-f098-4841-be8f-101b7113d811,27b710de-cf4d-4085-97c5-044321799262,1760443462717352803,-2.258301,-2.624512,2.866745,-0.038086,-0.403809,0.948242,2.045453890370906,-24.635237258906585,87.71251549848618,0.7070069909095764,-0.16588620841503143,-0.13520875573158264,0.6740483641624451
0f63bf27-f098-4841-be8f-101b7113d811,27b710de-cf4d-4085-97c5-044321799262,1760443462725359803,-2.197266,-2.685547,2.92778,-0.034668,-0.418457,0.949219,2.0296634116721837,-24.652477007155213,87.72139378482734,0.7069147825241089,-0.16588841378688812,-0.1354212611913681,0.6741018295288086
0f63bf27-f098-4841-be8f-101b7113d811,27b710de-cf4d-4085-97c5-044321799262,1760443462733370803,-2.317429,-2.622604,3.110886,-0.046387,-0.402344,0.953125,2.0219919499580947,-24.65816379380029,87.73083330969884,0.7068431377410889,-0.1658669412136078,-0.1355159729719162,0.6741632223129272
0f63bf27-f098-4841-be8f-101b7113d811,27b710de-cf4d-4085-97c5-044321799262,1760443462741381803,-2.563477,-2.13623,3.04985,-0.040039,-0.410156,0.933105,2.0180714857267823,-24.669312208402058,87.77792832072942,0.7065475583076477,-0.16585639119148254,-0.13567444682121277,0.6744437217712402
0f63bf27-f098-4841-be8f-101b7113d811,27b710de-cf4d-4085-97c5-044321799262,1760443462749392803,-2.378464,-2.077103,2.744675,-0.02832,-0.403809,0.950684,2.0084344572532764,-24.68127637721224,87.81145048029798,0.7063239812850952,-0.16583316028118134,-0.1358533650636673,0.6746475696563721
0f63bf27-f098-4841-be8f-101b7113d811,27b710de-cf4d-4085-97c5-044321799262,1760443462760040803,-2.563477,-2.01416,2.744675,-0.031738,-0.407227,0.942383,2.0029135215860934,-24.69156474923702,87.80601415226688,0.7063366770744324,-0.1658700555562973,-0.1359405815601349,0.6746076345443726
0f63bf27-f098-4841-be8f-101b7113d811,27b710de-cf4d-4085-97c5-044321799262,1760443462770688803,-2.317429,-2.077103,2.744675,-0.030273,-0.40625,0.939941,1.9948449943550837,-24.700872163085844,87.82037523946809,0.7062309980392456,-0.16586245596408844,-0.13606633245944977,0.6746947765350342
0f63bf27-f098-4841-be8f-101b7113d811,27b710de-cf4d-4085-97c5-044321799262,1760443462781336803,-2.68364,-1.829147,2.378464,-0.030273,-0.413086,0.945801,1.9892377785691395,-24.715107868487213,87.86652490729078,0.7059348821640015,-0.16586166620254517,-0.13625217974185944,0.674967348575592
0f63bf27-f098-4841-be8f-101b7113d811,27b710de-cf4d-4085-97c5-044321799262,1760443462789364803,-2.622604,-1.466751,2.073288,-0.041016,-0.419922,0.955566,1.9848733254522049,-24.72879442182581,87.85849559335519,0.7059599757194519,-0.16592921316623688,-0.136348694562912,0.674905002117157
0f63bf27-f098-4841-be8f-101b7113d811,27b710de-cf4d-4085-97c5-044321799262,1760443462797392803,-1.89209,-1.342773,1.890182,-0.039551,-0.420898,0.955566,1.9852843233587938,-24.743193771800403,87.8535443968493,0.7059717178344727,-0.16602559387683868,-0.1364244669675827,0.6748536825180054
0f63bf27-f098-4841-be8f-101b7113d811,27b710de-cf4d-4085-97c5-044321799262,1760443462805420803,-1.829147,-0.97847,1.768112,-0.030273,-0.436035,0.951172,1.9847690501656545,-24.747926718959725,87.86331010884824,0.7059077024459839,-0.1660398691892624,-0.13646988570690155,0.6749079823493958
