section id,recording id,timestamp [ns],gyro x [deg/s],gyro y [deg/s],gyro z [deg/s],acceleration x [g],acceleration y [g],acceleration z [g],roll [deg],pitch [deg],yaw [deg],quaternion w,quaternion x,quaternion y,quaternion z
0a3c40ce-4131-4352-9066-f6b964e3d0c9,30632152-b5d2-4dc6-96d7-e946b090a7b6,1760436083443591985,-1.823425,0.183105,0.650406,-0.020996,-0.390625,0.957519,1.268997512215161,-21.223580685227834,121.55767436047998,0.48158326745033264,-0.09939432144165039,-0.15539510548114777,0.8567675352096558
0a3c40ce-4131-4352-9066-f6b964e3d0c9,30632152-b5d2-4dc6-96d7-e946b090a7b6,1760436083453202985,-1.64032,0.12207,0.406265,-0.013184,-0.398438,0.960449,1.2713931577772566,-21.243400620427828,121.49511073088127,0.48204028606414795,-0.0995798110961914,-0.15547922253608704,0.8564736843109131
0a3c40ce-4131-4352-9066-f6b964e3d0c9,30632152-b5d2-4dc6-96d7-e946b090a7b6,1760436083462813985,-1.64032,0.061035,0.101089,-0.027832,-0.380859,0.952637,1.2688088817553764,-21.264378956307155,121.4611478536905,0.4822758436203003,-0.09969422221183777,-0.15561771392822266,0.8563025593757629
0a3c40ce-4131-4352-9066-f6b964e3d0c9,30632152-b5d2-4dc6-96d7-e946b090a7b6,1760436083472424985,-0.968933,0.12207,0.03624,-0.012695,-0.376953,0.948242,1.2696342891679442,-21.274077481625888,121.42252299848116,0.4825587272644043,-0.09979337453842163,-0.15565325319766998,0.8561251759529114
0a3c40ce-4131-4352-9066-f6b964e3d0c9,30632152-b5d2-4dc6-96d7-e946b090a7b6,1760436083482035985,-1.335144,0.183105,0.162125,-0.021973,-0.385254,0.948242,1.2665912211667505,-21.276830835881544,121.36963746236998,0.4829477071762085,-0.0998539850115776,-0.1556406170129776,0.8559010624885559
0a3c40ce-4131-4352-9066-f6b964e3d0c9,30632152-b5d2-4dc6-96d7-e946b090a7b6,1760436083488433985,-0.968933,-0.244141,0.03624,-0.006836,-0.378418,0.956055,1.2667111814463925,-21.28302626854752,121.368136224577,0.4829547107219696,-0.09988284111022949,-0.1556851863861084,0.8558856248855591
0a3c40ce-4131-4352-9066-f6b964e3d0c9,30632152-b5d2-4dc6-96d7-e946b090a7b6,1760436083494831985,-1.091003,-0.366211,-0.082016,-0.008789,-0.377441,0.935059,1.2650085749131337,-21.28823849315791,121.36278108637988,0.48298871517181396,-0.09989921003580093,-0.15572671592235565,0.8558569550514221
0a3c40ce-4131-4352-9066-f6b964e3d0c9,30632152-b5d2-4dc6-96d7-e946b090a7b6,1760436083501229985,-1.276016,-0.307083,0.284195,-0.024414,-0.394043,0.942871,1.2638782520646352,-21.295546779446244,121.34381047382543,0.48312368988990784,-0.09994713217020035,-0.15576964616775513,0.8557673692703247
0a3c40ce-4131-4352-9066-f6b964e3d0c9,30632152-b5d2-4dc6-96d7-e946b090a7b6,1760436083507627985,-1.213074,-0.427246,0.284195,-0.03125,-0.390137,0.9375,1.26393093462558,-21.303297626163044,121.32050875888362,0.48329228162765503,-0.10001164674758911,-0.15580710768699646,0.8556578159332275
0a3c40ce-4131-4352-9066-f6b964e3d0c9,30632152-b5d2-4dc6-96d7-e946b090a7b6,1760436083514025985,-1.029968,-0.244141,0.101089,-0.016113,-0.37793,0.943848,1.2655735030039443,-21.311783725995422,121.29165101101647,0.48350396752357483,-0.10009868443012238,-0.1558384895324707,0.8555223345756531
0a3c40ce-4131-4352-9066-f6b964e3d0c9,30632152-b5d2-4dc6-96d7-e946b090a7b6,1760436083525378985,-1.457214,-0.061035,-0.204086,-0.038574,-0.391602,0.954102,1.2692509779218328,-21.326350093164653,121.2021265152618,0.48416686058044434,-0.10030893981456757,-0.15585365891456604,0.8551199436187744
0a3c40ce-4131-4352-9066-f6b964e3d0c9,30632152-b5d2-4dc6-96d7-e946b090a7b6,1760436083536732985,-1.335144,0.305176,-0.204086,-0.03125,-0.38916,0.95166,1.274594131180515,-21.34677285153895,121.13930418019348,0.4846283495426178,-0.10051997005939484,-0.15592876076698303,0.8548199534416199
0a3c40ce-4131-4352-9066-f6b964e3d0c9,30632152-b5d2-4dc6-96d7-e946b090a7b6,1760436083548086985,-1.092911,-0.123978,-0.082016,-0.031738,-0.377441,0.966309,1.2780396479769391,-21.355579765538156,121.06730262364567,0.48516377806663513,-0.1006806269288063,-0.15591681003570557,0.8544994592666626
0a3c40ce-4131-4352-9066-f6b964e3d0c9,30632152-b5d2-4dc6-96d7-e946b090a7b6,1760436083559440985,-1.213074,0.061035,-0.146866,-0.03125,-0.386719,0.959961,1.2803852833944707,-21.36496691635006,120.99646382710837,0.4856884181499481,-0.1008339673280716,-0.15591473877429962,0.8541836738586426
0a3c40ce-4131-4352-9066-f6b964e3d0c9,30632152-b5d2-4dc6-96d7-e946b090a7b6,1760436083570794985,-1.214981,0.181198,-0.082016,-0.025879,-0.376953,0.954102,1.281383331367031,-21.373569058225844,120.92948407540207,0.48618283867836,-0.10096875578165054,-0.15591579675674438,0.8538861870765686
0a3c40ce-4131-4352-9066-f6b964e3d0c9,30632152-b5d2-4dc6-96d7-e946b090a7b6,1760436083582148985,-1.455307,0.181198,0.101089,-0.034668,-0.384766,0.950684,1.2872482469216082,-21.3862039894103,120.85114053854409,0.48676544427871704,-0.10117228329181671,-0.15591615438461304,0.8535300493240356
0a3c40ce-4131-4352-9066-f6b964e3d0c9,30632152-b5d2-4dc6-96d7-e946b090a7b6,1760436083590968985,-1.398087,-0.123978,-0.204086,-0.017578,-0.383789,0.950195,1.2859243025758003,-21.397070644628872,120.7468245549198,0.4875326454639435,-0.10135021060705185,-0.15591071546077728,0.853071928024292
0a3c40ce-4131-4352-9066-f6b964e3d0c9,30632152-b5d2-4dc6-96d7-e946b090a7b6,1760436083599788985,-1.51825,-0.183105,-0.146866,-0.028809,-0.380371,0.944824,1.286972304667596,-21.41308940640625,120.62539005667126,0.4884262979030609,-0.10159094631671906,-0.15591822564601898,0.8525305390357971
0a3c40ce-4131-4352-9066-f6b964e3d0c9,30632152-b5d2-4dc6-96d7-e946b090a7b6,1760436083608608985,-1.335144,-0.183105,-0.268936,-0.022461,-0.38623,0.952637,1.2839443045634735,-21.41873522358801,120.4956484827916,0.4893830418586731,-0.10176883637905121,-0.155858114361763,0.851971447467804
0a3c40ce-4131-4352-9066-f6b964e3d0c9,30632152-b5d2-4dc6-96d7-e946b090a7b6,1760436083617428985,-1.457214,-0.244141,0.03624,-0.032715,-0.373535,0.958496,1.2881850575208043,-21.432176347364752,120.36081262596578,0.49038124084472656,-0.10204076766967773,-0.15582022070884705,0.8513716459274292
0a3c40ce-4131-4352-9066-f6b964e3d0c9,30632152-b5d2-4dc6-96d7-e946b090a7b6,1760436083626248985,-1.703262,-0.123978,0.03624,-0.027832,-0.381836,0.946289,1.2907853642817722,-21.45179101313669,120.20979839051124,0.4914920926094055,-0.10234883427619934,-0.15582042932510376,0.8506938219070435
0a3c40ce-4131-4352-9066-f6b964e3d0c9,30632152-b5d2-4dc6-96d7-e946b090a7b6,1760436083635810985,-1.396179,-0.366211,0.162125,-0.027832,-0.397461,0.959473,1.2900238287384618,-21.47007693579406,120.06381780182846,0.49256107211112976,-0.10261963307857513,-0.15582917630672455,0.8500410318374634
0a3c40ce-4131-4352-9066-f6b964e3d0c9,30632152-b5d2-4dc6-96d7-e946b090a7b6,1760436083645371985,-1.581192,-0.669479,0.219345,-0.022461,-0.384766,0.947754,1.291938275978265,-21.493842435989148,119.93111905716316,0.49353036284446716,-0.10291582345962524,-0.15587860345840454,0.8494336605072021
0a3c40ce-4131-4352-9066-f6b964e3d0c9,30632152-b5d2-4dc6-96d7-e946b090a7b6,1760436083654932985,-1.703262,-0.490189,0.4673,-0.020996,-0.39209,0.949219,1.2926598370888385,-21.51378410638694,119.79249287692379,0.49454396963119507,-0.10319510102272034,-0.15589895844459534,0.8488062620162964
0a3c40ce-4131-4352-9066-f6b964e3d0c9,30632152-b5d2-4dc6-96d7-e946b090a7b6,1760436083664493985,-1.579285,-0.549316,0.772476,-0.021484,-0.398438,0.952637,1.291505773182518,-21.535233831614942,119.64409841400078,0.49562540650367737,-0.10348045825958252,-0.1559293419122696,0.8481348752975464
0a3c40ce-4131-4352-9066-f6b964e3d0c9,30632152-b5d2-4dc6-96d7-e946b090a7b6,1760436083674054985,-1.276016,-0.490189,0.589371,-0.018066,-0.390137,0.961914,1.2863259124077329,-21.55183030073107,119.50782567597824,0.49661436676979065,-0.10369890928268433,-0.15595167875289917,0.8475253582000732
0a3c40ce-4131-4352-9066-f6b964e3d0c9,30632152-b5d2-4dc6-96d7-e946b090a7b6,1760436083682043985,-0.967026,-0.490189,0.955582,-0.027344,-0.38916,0.968262,1.2847269414650544,-21.568770020940004,119.37850240471218,0.49755582213401794,-0.10393605381250381,-0.15596701204776764,0.8469410538673401
0a3c40ce-4131-4352-9066-f6b964e3d0c9,30632152-b5d2-4dc6-96d7-e946b090a7b6,1760436083690032985,-0.787735,-0.490189,0.4673,-0.007812,-0.397949,0.963867,1.2864083189304336,-21.575406679508216,119.24443280701189,0.49854373931884766,-0.10415954142808914,-0.15588712692260742,0.8463471531867981
0a3c40ce-4131-4352-9066-f6b964e3d0c9,30632152-b5d2-4dc6-96d7-e946b090a7b6,1760436083698021985,-0.299454,-0.612259,0.101089,-0.020996,-0.387695,0.963867,1.283883215161637,-21.58388775235738,119.243506280399,0.49854084849357605,-0.104178786277771,-0.1559600681066513,0.8463330268859863
0a3c40ce-4131-4352-9066-f6b964e3d0c9,30632152-b5d2-4dc6-96d7-e946b090a7b6,1760436083706010985,-0.053406,-0.244141,0.341415,-0.013184,-0.387207,0.956543,1.2816610137887408,-21.5874201112046,119.24268830049573,0.4985412359237671,-0.10417874157428741,-0.15599514544010162,0.8463263511657715
0a3c40ce-4131-4352-9066-f6b964e3d0c9,30632152-b5d2-4dc6-96d7-e946b090a7b6,1760436083716698985,0.007629,-0.12207,0.101089,-0.006348,-0.401367,0.958984,1.2806038814846012,-21.592427297884857,119.2423002651419,0.49853894114494324,-0.10419309139251709,-0.15603646636009216,0.8463183045387268
0a3c40ce-4131-4352-9066-f6b964e3d0c9,30632152-b5d2-4dc6-96d7-e946b090a7b6,1760436083727386985,0.249863,-0.307083,-0.020981,-0.034668,-0.391602,0.941406,1.2783008477698912,-21.600458201569122,119.13658958168614,0.49931034445762634,-0.10435473918914795,-0.1560097485780716,0.8458483815193176
0a3c40ce-4131-4352-9066-f6b964e3d0c9,30632152-b5d2-4dc6-96d7-e946b090a7b6,1760436083738074985,0.312805,-0.427246,0.284195,-0.023438,-0.390625,0.954102,1.2831736089798442,-21.6032149778061,118.93866167658098,0.500775158405304,-0.10467194765806198,-0.1558283567428589,0.8449761867523193
0a3c40ce-4131-4352-9066-f6b964e3d0c9,30632152-b5d2-4dc6-96d7-e946b090a7b6,1760436083746056985,0.37384,-0.366211,0.4673,-0.020508,-0.386719,0.945312,1.2844477385639075,-21.610724466321418,118.48709568355349,0.5040971040725708,-0.10532738268375397,-0.15546445548534393,0.8429840803146362
0a3c40ce-4131-4352-9066-f6b964e3d0c9,30632152-b5d2-4dc6-96d7-e946b090a7b6,1760436083754039985,0.37384,-0.549316,0.284195,-0.027344,-0.397461,0.952148,1.2922618778948243,-21.615360499711276,118.35018836007019,0.5051109790802002,-0.10559077560901642,-0.15533822774887085,0.8423672914505005
0a3c40ce-4131-4352-9066-f6b964e3d0c9,30632152-b5d2-4dc6-96d7-e946b090a7b6,1760436083762022985,0.371933,-0.917435,0.524521,-0.025391,-0.378906,0.95166,1.2936634272524823,-21.615525038831365,118.3507065339255,0.5051089525222778,-0.10560110211372375,-0.1553337424993515,0.8423680067062378
0a3c40ce-4131-4352-9066-f6b964e3d0c9,30632152-b5d2-4dc6-96d7-e946b090a7b6,1760436083770005985,0.495911,-0.610352,0.406265,-0.019531,-0.387695,0.933594,1.2914027617306567,-21.617461852884702,118.3498715609244,0.5051105618476868,-0.10559409111738205,-0.1553572118282318,0.8423635959625244
0a3c40ce-4131-4352-9066-f6b964e3d0c9,30632152-b5d2-4dc6-96d7-e946b090a7b6,1760436083780682985,0.007629,-0.610352,0.341415,-0.021484,-0.384766,0.946289,1.2942396375163316,-21.61956989122779,118.35091583857871,0.5051051378250122,-0.10562275350093842,-0.15536120533943176,0.8423625230789185
0a3c40ce-4131-4352-9066-f6b964e3d0c9,30632152-b5d2-4dc6-96d7-e946b090a7b6,1760436083791359985,-0.541687,-0.061035,0.589371,-0.023438,-0.384766,0.944336,1.2939721124249504,-21.623668675451636,118.23784293441503,0.505932629108429,-0.10579200834035873,-0.15528827905654907,0.8418579697608948
0a3c40ce-4131-4352-9066-f6b964e3d0c9,30632152-b5d2-4dc6-96d7-e946b090a7b6,1760436083802036985,-0.907898,0.305176,0.4673,-0.026367,-0.386719,0.958008,1.292815545227254,-21.626080541291238,118.01489177538006,0.5075662136077881,-0.1060960665345192,-0.15510502457618713,0.8408695459365845
0a3c40ce-4131-4352-9066-f6b964e3d0c9,30632152-b5d2-4dc6-96d7-e946b090a7b6,1760436083811624985,-0.724792,0.12207,0.101089,-0.020508,-0.378418,0.950684,1.2957919353295164,-21.63052910929544,117.77457066241324,0.5093291997909546,-0.10646256804466248,-0.1549016386270523,0.8397939801216125
0a3c40ce-4131-4352-9066-f6b964e3d0c9,30632152-b5d2-4dc6-96d7-e946b090a7b6,1760436083821214985,-0.541687,0.12207,0.162125,-0.023438,-0.38623,0.954102,1.2973501994615948,-21.636880696273003,117.55886708437937,0.5109063386917114,-0.10679348558187485,-0.15474063158035278,0.8388230800628662
0a3c40ce-4131-4352-9066-f6b964e3d0c9,30632152-b5d2-4dc6-96d7-e946b090a7b6,1760436083830804985,-0.480652,0.12207,0.162125,-0.02832,-0.393555,0.95166,1.2970391718748369,-21.638420086760465,117.381677615423,0.512201189994812,-0.10703720152378082,-0.1545879989862442,0.8380300402641296
0a3c40ce-4131-4352-9066-f6b964e3d0c9,30632152-b5d2-4dc6-96d7-e946b090a7b6,1760436083840394985,-0.360489,-0.001907,-0.020981,-0.022949,-0.393066,0.943359,1.2996302605126187,-21.646945743538645,117.14355569388968,0.5139384269714355,-0.1074150949716568,-0.1544160544872284,0.8369491100311279
0a3c40ce-4131-4352-9066-f6b964e3d0c9,30632152-b5d2-4dc6-96d7-e946b090a7b6,1760436083849984985,-0.238419,-0.307083,-0.204086,-0.026855,-0.375,0.951172,1.3015244570511153,-21.654521410056926,116.93262359958585,0.5154748558998108,-0.10774682462215424,-0.15426497161388397,0.8359888195991516
0a3c40ce-4131-4352-9066-f6b964e3d0c9,30632152-b5d2-4dc6-96d7-e946b090a7b6,1760436083859594985,-0.238419,-1.10054,0.03624,-0.031738,-0.384766,0.945801,1.3040435827950752,-21.6604691244276,116.57453388284681,0.5180833339691162,-0.10827326774597168,-0.1539594978094101,0.8343638181686401
0a3c40ce-4131-4352-9066-f6b964e3d0c9,30632152-b5d2-4dc6-96d7-e946b090a7b6,1760436083869206985,-0.421524,-0.97847,0.406265,-0.032715,-0.394531,0.94043,1.3038249360269616,-21.668169547630878,116.3209745919701,0.5199219584465027,-0.10864677280187607,-0.15377667546272278,0.8332045078277588
0a3c40ce-4131-4352-9066-f6b964e3d0c9,30632152-b5d2-4dc6-96d7-e946b090a7b6,1760436083878818985,-0.60463,-0.612259,-0.146866,-0.027344,-0.383301,0.942871,1.303819109897032,-21.673006375626137,116.07144694344473,0.5217312574386597,-0.10900320112705231,-0.15357497334480286,0.8320633769035339
0a3c40ce-4131-4352-9066-f6b964e3d0c9,30632152-b5d2-4dc6-96d7-e946b090a7b6,1760436083888430985,-0.238419,-0.490189,0.03624,-0.015137,-0.386719,0.94043,1.3015139833387679,-21.67804175203807,115.82655169148151,0.5235012173652649,-0.10933728516101837,-0.15338881313800812,0.8309414386749268
0a3c40ce-4131-4352-9066-f6b964e3d0c9,30632152-b5d2-4dc6-96d7-e946b090a7b6,1760436083898042985,-0.236511,-0.244141,0.101089,-0.029297,-0.376953,0.947266,1.2999859615183085,-21.679304189345707,115.58852986891873,0.5252230167388916,-0.10965033620595932,-0.15317754447460175,0.8298519253730774
0a3c40ce-4131-4352-9066-f6b964e3d0c9,30632152-b5d2-4dc6-96d7-e946b090a7b6,1760436083906032985,0.007629,-0.061035,-0.082016,-0.019043,-0.383789,0.949219,1.3001558800868378,-21.683571848583078,115.34231489925905,0.527001678943634,-0.10999992489814758,-0.1529717594385147,0.8287152051925659
0a3c40ce-4131-4352-9066-f6b964e3d0c9,30632152-b5d2-4dc6-96d7-e946b090a7b6,1760436083914022985,-0.114441,-0.366211,-0.020981,-0.01416,-0.393066,0.95166,1.298630815682512,-21.68889311203704,115.14151907753563,0.5284467339515686,-0.11028116941452026,-0.15282435715198517,0.8277842402458191
0a3c40ce-4131-4352-9066-f6b964e3d0c9,30632152-b5d2-4dc6-96d7-e946b090a7b6,1760436083922012985,0.192642,-0.490189,-0.020981,-0.019531,-0.378906,0.942871,1.297974266508022,-21.690630021506603,115.00827875822648,0.5294066071510315,-0.1104620173573494,-0.1527116298675537,0.8271673917770386
0a3c40ce-4131-4352-9066-f6b964e3d0c9,30632152-b5d2-4dc6-96d7-e946b090a7b6,1760436083930002985,0.25177,-0.549316,-0.146866,-0.016602,-0.384766,0.948242,1.297834911262652,-21.697307940083036,114.8339227960765,0.530659019947052,-0.11072395741939545,-0.15259231626987457,0.8263514637947083
0a3c40ce-4131-4352-9066-f6b964e3d0c9,30632152-b5d2-4dc6-96d7-e946b090a7b6,1760436083940683985,0.432968,-0.490189,0.03624,-0.009277,-0.376465,0.942383,1.2952652273002014,-21.702065862961632,114.59544662912637,0.5323703289031982,-0.11104471981525421,-0.15240785479545593,0.8252410292625427
0a3c40ce-4131-4352-9066-f6b964e3d0c9,30632152-b5d2-4dc6-96d7-e946b090a7b6,1760436083951364985,0.37384,-0.854492,0.03624,-0.019043,-0.391113,0.950684,1.293896868575798,-21.705295620461722,114.44277539275461,0.5334649085998535,-0.11125276982784271,-0.15228945016860962,0.8245276808738708
0a3c40ce-4131-4352-9066-f6b964e3d0c9,30632152-b5d2-4dc6-96d7-e946b090a7b6,1760436083962045985,0.555038,-0.429153,0.406265,-0.022461,-0.387695,0.952148,1.293978019101867,-21.70853566099101,114.26974869607659,0.5347067713737488,-0.11149819195270538,-0.15214426815509796,0.8237165212631226
0a3c40ce-4131-4352-9066-f6b964e3d0c9,30632152-b5d2-4dc6-96d7-e946b090a7b6,1760436083972708985,0.371933,-0.612259,0.707626,-0.015137,-0.382812,0.941894,1.2912258021423468,-21.714897870095044,114.04964235419678,0.5362791419029236,-0.11180003732442856,-0.15198850631713867,0.8226815462112427
0a3c40ce-4131-4352-9066-f6b964e3d0c9,30632152-b5d2-4dc6-96d7-e946b090a7b6,1760436083983370985,0.555038,-0.490189,0.4673,-0.02832,-0.376465,0.95166,1.2942795315620608,-21.71831074899954,113.81609213310107,0.5379559993743896,-0.11214738339185715,-0.15177053213119507,0.8215789794921875
0a3c40ce-4131-4352-9066-f6b964e3d0c9,30632152-b5d2-4dc6-96d7-e946b090a7b6,1760436083994032985,0.617981,-0.366211,0.4673,-0.025391,-0.398438,0.947266,1.2952925372516764,-21.71839983848085,113.59472405192807,0.5395433902740479,-0.11244803667068481,-0.15154947340488434,0.8205370903015137
0a3c40ce-4131-4352-9066-f6b964e3d0c9,30632152-b5d2-4dc6-96d7-e946b090a7b6,1760436084002021985,0.066757,-0.307083,0.524521,-0.010742,-0.381348,0.95166,1.2934206803074204,-21.72769875911439,113.19056375664466,0.5424239039421082,-0.11301220953464508,-0.1512274146080017,0.818617582321167
0a3c40ce-4131-4352-9066-f6b964e3d0c9,30632152-b5d2-4dc6-96d7-e946b090a7b6,1760436084010013985,-0.175476,-0.549316,0.650406,-0.023438,-0.390625,0.950684,1.292856037869058,-21.72930818707284,112.98413782182729,0.5438956022262573,-0.11328800022602081,-0.1510377824306488,0.8176374435424805
0a3c40ce-4131-4352-9066-f6b964e3d0c9,30632152-b5d2-4dc6-96d7-e946b090a7b6,1760436084018005985,-0.053406,-0.366211,0.406265,-0.017578,-0.384277,0.949219,1.2917172501891732,-21.733433281389917,112.88825084750285,0.5445746779441833,-0.11342570930719376,-0.15097784996032715,0.8171772360801697
0a3c40ce-4131-4352-9066-f6b964e3d0c9,30632152-b5d2-4dc6-96d7-e946b090a7b6,1760436084025997985,-0.114441,-0.549316,0.707626,-0.026367,-0.399414,0.952637,1.2945993461645704,-21.74350224206971,112.74939989523138,0.5455598831176758,-0.11367672681808472,-0.1508985310792923,0.8164995908737183
0a3c40ce-4131-4352-9066-f6b964e3d0c9,30632152-b5d2-4dc6-96d7-e946b090a7b6,1760436084036726985,-0.175476,-0.854492,0.406265,-0.023438,-0.384766,0.953613,1.2966219750910488,-21.744681798228463,112.52610438051406,0.5471515655517578,-0.11399053782224655,-0.15067549049854279,0.8154312968254089
0a3c40ce-4131-4352-9066-f6b964e3d0c9,30632152-b5d2-4dc6-96d7-e946b090a7b6,1760436084047455985,0.371933,-0.246048,0.772476,-0.02832,-0.383789,0.955078,1.2996350339062623,-21.749053043934293,112.31359505265175,0.5486631393432617,-0.11431197822093964,-0.15048056840896606,0.8144059777259827
0a3c40ce-4131-4352-9066-f6b964e3d0c9,30632152-b5d2-4dc6-96d7-e946b090a7b6,1760436084058184985,0.009537,-0.795364,0.341415,-0.025391,-0.382812,0.959473,1.3017255200446398,-21.753002727359508,112.10012340986779,0.5501787662506104,-0.11462578922510147,-0.15028543770313263,0.8133747577667236
0a3c40ce-4131-4352-9066-f6b964e3d0c9,30632152-b5d2-4dc6-96d7-e946b090a7b6,1760436084068792985,0.249863,-0.97847,0.284195,-0.028809,-0.381348,0.952637,1.2987559637675465,-21.76121003328404,111.88128895143397,0.5517202615737915,-0.11493079364299774,-0.15013891458511353,0.8123139142990112
0a3c40ce-4131-4352-9066-f6b964e3d0c9,30632152-b5d2-4dc6-96d7-e946b090a7b6,1760436084079400985,0.556946,-0.732422,0.162125,-0.020996,-0.392578,0.95459,1.3028649479381975,-21.761806136091856,111.67097292251658,0.5532150864601135,-0.11523810774087906,-0.14991211891174316,0.8112949728965759
0a3c40ce-4131-4352-9066-f6b964e3d0c9,30632152-b5d2-4dc6-96d7-e946b090a7b6,1760436084090008985,0.801086,-0.305176,-0.204086,-0.040527,-0.391113,0.958008,1.3028522557628959,-21.76623606333399,111.4674728228186,0.5546512007713318,-0.11552536487579346,-0.14973871409893036,0.8103049993515015
0a3c40ce-4131-4352-9066-f6b964e3d0c9,30632152-b5d2-4dc6-96d7-e946b090a7b6,1760436084100794985,0.801086,-0.305176,-0.146866,-0.036133,-0.382324,0.944824,1.3109709226753343,-21.776381295525937,111.15112828388163,0.5568879842758179,-0.11604458093643188,-0.1494515836238861,0.808748185634613
0a3c40ce-4131-4352-9066-f6b964e3d0c9,30632152-b5d2-4dc6-96d7-e946b090a7b6,1760436084111580985,0.679016,0.244141,-0.020981,-0.018555,-0.395508,0.942383,1.3107255247114329,-21.782500166219418,110.9302691950005,0.5584401488304138,-0.11636030673980713,-0.1492720991373062,0.8076649904251099
0a3c40ce-4131-4352-9066-f6b964e3d0c9,30632152-b5d2-4dc6-96d7-e946b090a7b6,1760436084122366985,0.434875,-0.061035,-0.204086,-0.040039,-0.402344,0.93457,1.319222033502635,-21.792366500378805,110.78282059823904,0.5594815611839294,-0.1166599914431572,-0.14915046095848083,0.8069230914115906
0a3c40ce-4131-4352-9066-f6b964e3d0c9,30632152-b5d2-4dc6-96d7-e946b090a7b6,1760436084130281985,0.432968,-0.307083,-0.326157,-0.024902,-0.401855,0.952637,1.3213467552983698,-21.795580575345504,110.61091078384457,0.5606914758682251,-0.11691418290138245,-0.1489875614643097,0.806076169013977
0a3c40ce-4131-4352-9066-f6b964e3d0c9,30632152-b5d2-4dc6-96d7-e946b090a7b6,1760436084138198985,0.495911,0.061035,-0.268936,-0.025391,-0.392578,0.946289,1.3242290983808822,-21.800008791821504,110.39445881414635,0.5622130036354065,-0.11723723262548447,-0.14878351986408234,0.8050064444541931
0a3c40ce-4131-4352-9066-f6b964e3d0c9,30632152-b5d2-4dc6-96d7-e946b090a7b6,1760436084146115985,0.25177,-0.061035,-0.509262,-0.033203,-0.387207,0.950195,1.3280458309951901,-21.804086071110383,110.18495745249695,0.5636852383613586,-0.11755575239658356,-0.14857885241508484,0.8039675951004028
0a3c40ce-4131-4352-9066-f6b964e3d0c9,30632152-b5d2-4dc6-96d7-e946b090a7b6,1760436084154032985,0.1297,-0.183105,-0.635147,-0.044922,-0.398438,0.954102,1.333838972392646,-21.80792538337684,109.9876985972913,0.5650725364685059,-0.1178707480430603,-0.14837469160556793,0.8029847145080566
0a3c40ce-4131-4352-9066-f6b964e3d0c9,30632152-b5d2-4dc6-96d7-e946b090a7b6,1760436084164692985,0.066757,-0.123978,-0.452042,-0.037598,-0.391602,0.946289,1.3423867913433791,-21.81288356159745,109.78881970765843,0.566472053527832,-0.1182122603058815,-0.14816245436668396,0.8019869923591614
0a3c40ce-4131-4352-9066-f6b964e3d0c9,30632152-b5d2-4dc6-96d7-e946b090a7b6,1760436084175352985,-0.236511,-0.183105,-0.570297,-0.040039,-0.390625,0.943359,1.3513953760196957,-21.818744055154916,109.58336071887665,0.5679156184196472,-0.11856955289840698,-0.14794671535491943,0.8009524345397949
0a3c40ce-4131-4352-9066-f6b964e3d0c9,30632152-b5d2-4dc6-96d7-e946b090a7b6,1760436084186012985,-0.175476,-0.244141,-0.452042,-0.047852,-0.384277,0.949707,1.3597623549362565,-21.823385887958118,109.36825388178421,0.5694248676300049,-0.11892838031053543,-0.14771480858325958,0.7998697757720947
0a3c40ce-4131-4352-9066-f6b964e3d0c9,30632152-b5d2-4dc6-96d7-e946b090a7b6,1760436084196689985,-0.421524,-0.612259,-0.020981,-0.040039,-0.402344,0.946289,1.3746467904290733,-21.836988749657834,109.07953846966548,0.5714455842971802,-0.11947127431631088,-0.14743556082248688,0.798397958278656
0a3c40ce-4131-4352-9066-f6b964e3d0c9,30632152-b5d2-4dc6-96d7-e946b090a7b6,1760436084207368985,-0.421524,-1.10054,-0.326157,-0.046875,-0.397949,0.949707,1.3846558460587906,-21.8423089005028,108.8520335511672,0.5730377435684204,-0.11985981464385986,-0.14718516170978546,0.7972439527511597
0a3c40ce-4131-4352-9066-f6b964e3d0c9,30632152-b5d2-4dc6-96d7-e946b090a7b6,1760436084218047985,0.190735,-0.915527,-0.082016,-0.047363,-0.399902,0.947754,1.394767722494643,-21.845777865547156,108.66517964483329,0.5743468999862671,-0.12018720805644989,-0.14696303009986877,0.7962929606437683
0a3c40ce-4131-4352-9066-f6b964e3d0c9,30632152-b5d2-4dc6-96d7-e946b090a7b6,1760436084228737985,0.434875,-1.037598,0.219345,-0.043945,-0.413086,0.942871,1.3992011376585176,-21.850508888156874,108.53976426271353,0.5752195715904236,-0.12040235102176666,-0.1468421071767807,0.7956526279449463
0a3c40ce-4131-4352-9066-f6b964e3d0c9,30632152-b5d2-4dc6-96d7-e946b090a7b6,1760436084239426985,0.37384,-1.342773,0.4673,-0.040527,-0.401855,0.940918,1.4018159901219547,-21.855205242854556,108.38499444325704,0.576292872428894,-0.12064217031002045,-0.14669889211654663,0.7948656678199768
0a3c40ce-4131-4352-9066-f6b964e3d0c9,30632152-b5d2-4dc6-96d7-e946b090a7b6,1760436084250115985,0.37384,-1.342773,0.524521,-0.044922,-0.400879,0.950195,1.4015251462660612,-21.859580564820927,108.21513243503681,0.5774662494659424,-0.1208793893456459,-0.14655178785324097,0.7940046787261963
0a3c40ce-4131-4352-9066-f6b964e3d0c9,30632152-b5d2-4dc6-96d7-e946b090a7b6,1760436084258282985,1.045227,-2.01416,1.138687,-0.045898,-0.401855,0.941894,1.3993449350903502,-21.865086145628037,107.87497118703705,0.5798130035400391,-0.1213264986872673,-0.14624154567718506,0.7922815680503845
0a3c40ce-4131-4352-9066-f6b964e3d0c9,30632152-b5d2-4dc6-96d7-e946b090a7b6,1760436084266449985,1.04332,-2.134323,1.195908,-0.039062,-0.393066,0.945312,1.3935997708209547,-21.865332127105425,107.70426492783466,0.5809850692749023,-0.12150577455759048,-0.14609147608280182,0.7914227247238159
0a3c40ce-4131-4352-9066-f6b964e3d0c9,30632152-b5d2-4dc6-96d7-e946b090a7b6,1760436084274616985,1.348495,-2.443314,1.077652,-0.052246,-0.39209,0.947754,1.3885122563631038,-21.862008498366126,107.51929615762026,0.5822582840919495,-0.12168955057859421,-0.1458979994058609,0.7904939651489258
0a3c40ce-4131-4352-9066-f6b964e3d0c9,30632152-b5d2-4dc6-96d7-e946b090a7b6,1760436084282783985,1.960754,-2.990723,1.565933,-0.04834,-0.394043,0.953125,1.3847005459080213,-21.849874374899056,107.38357528312484,0.5832001566886902,-0.12177463620901108,-0.1456892490386963,0.7898247241973877
0a3c40ce-4131-4352-9066-f6b964e3d0c9,30632152-b5d2-4dc6-96d7-e946b090a7b6,1760436084293524985,2.693176,-2.868652,2.11525,-0.061523,-0.395508,0.961914,1.3821914454974291,-21.829354444711814,107.31627261881282,0.5836791396141052,-0.12173902988433838,-0.14548861980438232,0.789513349533081
0a3c40ce-4131-4352-9066-f6b964e3d0c9,30632152-b5d2-4dc6-96d7-e946b090a7b6,1760436084304265985,2.754211,-3.112793,2.420425,-0.054199,-0.402344,0.949707,1.3774650906817725,-21.81305302049799,107.1866572631525,0.5845804214477539,-0.12178833782672882,-0.14526233077049255,0.7888803482055664
0a3c40ce-4131-4352-9066-f6b964e3d0c9,30632152-b5d2-4dc6-96d7-e946b090a7b6,1760436084315006985,2.876282,-3.295898,2.843857,-0.05127,-0.400879,0.950195,1.3704144874463808,-21.79647417295036,107.05964403731528,0.5854604244232178,-0.12181659787893295,-0.1450488418340683,0.7882624268531799
0a3c40ce-4131-4352-9066-f6b964e3d0c9,30632152-b5d2-4dc6-96d7-e946b090a7b6,1760436084325372985,2.876282,-3.295898,3.091812,-0.044434,-0.384766,0.938965,1.3646776055326457,-21.778938514703924,106.95139914978007,0.5862132906913757,-0.12182497978210449,-0.14484210312366486,0.7877393960952759
0a3c40ce-4131-4352-9066-f6b964e3d0c9,30632152-b5d2-4dc6-96d7-e946b090a7b6,1760436084335737985,2.26593,-3.540039,3.763199,-0.054199,-0.376953,0.929687,1.3571206016694672,-21.762648487150543,106.80615833951693,0.5872163772583008,-0.12187358736991882,-0.14461404085159302,0.7870264053344727
0a3c40ce-4131-4352-9066-f6b964e3d0c9,30632152-b5d2-4dc6-96d7-e946b090a7b6,1760436084346102985,2.14386,-3.967285,4.25148,-0.060547,-0.393066,0.945312,1.3510806047649477,-21.746695252870232,106.63700787601886,0.5883842706680298,-0.12196407467126846,-0.1443551778793335,0.7861871719360352
0a3c40ce-4131-4352-9066-f6b964e3d0c9,30632152-b5d2-4dc6-96d7-e946b090a7b6,1760436084354090985,1.472473,-4.821777,4.796982,-0.061035,-0.396484,0.950684,1.3300237287825007,-21.730063753806935,106.2900699345131,0.5907504558563232,-0.12217119336128235,-0.14397957921028137,0.7844475507736206
0a3c40ce-4131-4352-9066-f6b964e3d0c9,30632152-b5d2-4dc6-96d7-e946b090a7b6,1760436084362078985,1.045227,-5.79834,5.167007,-0.04541,-0.376953,0.94873,1.3131873088943593,-21.719318810734734,106.21629514938738,0.5912439823150635,-0.1220935508608818,-0.14391399919986725,0.7840997576713562
0a3c40ce-4131-4352-9066-f6b964e3d0c9,30632152-b5d2-4dc6-96d7-e946b090a7b6,1760436084370066985,0.986099,-6.044388,5.773544,-0.040039,-0.395508,0.95459,1.2896510730266804,-21.71360808543082,106.1065207063494,0.5919705033302307,-0.12204109132289886,-0.14387938380241394,0.7835659384727478
0a3c40ce-4131-4352-9066-f6b964e3d0c9,30632152-b5d2-4dc6-96d7-e946b090a7b6,1760436084378054985,0.680923,-6.349564,5.773544,-0.051758,-0.390137,0.955078,1.266601186389158,-21.709111974358382,106.03329391924436,0.5924462676048279,-0.1219523549079895,-0.14388971030712128,0.7832182049751282
0a3c40ce-4131-4352-9066-f6b964e3d0c9,30632152-b5d2-4dc6-96d7-e946b090a7b6,1760436084388694985,0.923157,-6.469727,5.95665,-0.051758,-0.391602,0.957519,1.2460994957109233,-21.70662403687012,106.02035248253758,0.5925112366676331,-0.12181568890810013,-0.14396488666534424,0.7831765413284302
0a3c40ce-4131-4352-9066-f6b964e3d0c9,30632152-b5d2-4dc6-96d7-e946b090a7b6,1760436084399334985,0.738144,-6.837845,6.07872,-0.053223,-0.392578,0.962402,1.2186062476175368,-21.701440219956655,105.87962911303185,0.5934427976608276,-0.1217779591679573,-0.14392206072807312,0.7824846506118774
0a3c40ce-4131-4352-9066-f6b964e3d0c9,30632152-b5d2-4dc6-96d7-e946b090a7b6,1760436084409974985,1.714706,-7.204056,6.261826,-0.030762,-0.372559,0.959961,1.1845542104702913,-21.68710091543587,105.739172034034,0.5943719148635864,-0.12164798378944397,-0.14385119080543518,0.7818123698234558
0a3c40ce-4131-4352-9066-f6b964e3d0c9,30632152-b5d2-4dc6-96d7-e946b090a7b6,1760436084417987985,2.754211,-7.080078,6.631851,-0.044922,-0.38916,0.959961,1.1528978517721584,-21.66737899189845,105.62733872827305,0.5951130986213684,-0.12147058546543121,-0.14376194775104523,0.7812923789024353
0a3c40ce-4131-4352-9066-f6b964e3d0c9,30632152-b5d2-4dc6-96d7-e946b090a7b6,1760436084426000985,3.305435,-7.326126,6.387711,-0.036133,-0.376953,0.95459,1.1172866267101313,-21.63969568808757,105.5061455975422,0.5959200263023376,-0.12123669683933258,-0.14362944662570953,0.7807378172874451
0a3c40ce-4131-4352-9066-f6b964e3d0c9,30632152-b5d2-4dc6-96d7-e946b090a7b6,1760436084434013985,4.096985,-7.629395,6.631851,-0.014648,-0.384277,0.939453,1.0752009261009678,-21.60530658417035,105.36994748447056,0.5968267321586609,-0.12094256281852722,-0.1434696912765503,0.7801200151443481
0a3c40ce-4131-4352-9066-f6b964e3d0c9,30632152-b5d2-4dc6-96d7-e946b090a7b6,1760436084442026985,4.707336,-7.8125,6.692886,-0.01416,-0.393555,0.945312,1.0286126920869838,-21.56881411922566,105.23824192590112,0.5976986289024353,-0.12060101330280304,-0.14332470297813416,0.779531717300415
0a3c40ce-4131-4352-9066-f6b964e3d0c9,30632152-b5d2-4dc6-96d7-e946b090a7b6,1760436084452700985,5.620956,-7.814407,6.631851,-0.023926,-0.37793,0.963379,0.9845614949887046,-21.5206036053333,105.13142331742725,0.5984148979187012,-0.12018441408872604,-0.14311367273330688,0.7790852189064026
0a3c40ce-4131-4352-9066-f6b964e3d0c9,30632152-b5d2-4dc6-96d7-e946b090a7b6,1760436084463374985,6.780624,-7.631302,6.261826,-0.018066,-0.379395,0.958496,0.9354644156773865,-21.460498388189407,105.05675377760838,0.5989172458648682,-0.11963113397359848,-0.14288246631622314,0.7788267731666565
0a3c40ce-4131-4352-9066-f6b964e3d0c9,30632152-b5d2-4dc6-96d7-e946b090a7b6,1760436084474048985,7.881165,-7.263184,6.444931,-0.009277,-0.361328,0.963867,0.8897542823780206,-21.38665632755854,104.93652376264389,0.5997462272644043,-0.11908571422100067,-0.14249345660209656,0.7783428430557251
0a3c40ce-4131-4352-9066-f6b964e3d0c9,30632152-b5d2-4dc6-96d7-e946b090a7b6,1760436084482045985,8.918762,-6.774902,6.567001,-0.007324,-0.348145,0.964844,0.8481334919489182,-21.302832027609615,104.83544709743641,0.6004591584205627,-0.11849117279052734,-0.14203615486621857,0.777967631816864
0a3c40ce-4131-4352-9066-f6b964e3d0c9,30632152-b5d2-4dc6-96d7-e946b090a7b6,1760436084490044985,9.527206,-7.326126,6.387711,-0.003418,-0.336426,0.935059,0.8027396373365402,-21.211056369928663,104.76564026966447,0.6009624600410461,-0.11778996884822845,-0.1415778547525406,0.777769148349762
0a3c40ce-4131-4352-9066-f6b964e3d0c9,30632152-b5d2-4dc6-96d7-e946b090a7b6,1760436084498043985,9.405136,-7.631302,6.875992,0.005371,-0.344727,0.941894,0.7535039981566225,-21.117309942162237,104.67081823308187,0.6016325950622559,-0.11708249151706696,-0.1411016285419464,0.7774444818496704
0a3c40ce-4131-4352-9066-f6b964e3d0c9,30632152-b5d2-4dc6-96d7-e946b090a7b6,1760436084506042985,8.796692,-7.324219,7.120132,0.003906,-0.338867,0.947754,0.7059045295159093,-21.02943063449878,104.53443869641586,0.6025809645652771,-0.1164669543504715,-0.14061565697193146,0.7768903970718384
0a3c40ce-4131-4352-9066-f6b964e3d0c9,30632152-b5d2-4dc6-96d7-e946b090a7b6,1760436084516732985,8.125305,-7.873535,7.303238,0.015137,-0.342285,0.939941,0.6551523535902701,-20.946663812013014,104.43075857780653,0.6032987236976624,-0.11581573635339737,-0.140215665102005,0.7765029668807983
0a3c40ce-4131-4352-9066-f6b964e3d0c9,30632152-b5d2-4dc6-96d7-e946b090a7b6,1760436084527422985,6.904602,-8.239746,7.547379,0.006348,-0.326172,0.933594,0.5978316088158174,-20.873058049820166,104.33678284643952,0.6039340496063232,-0.11515556275844574,-0.13992345333099365,0.7761598825454712
0a3c40ce-4131-4352-9066-f6b964e3d0c9,30632152-b5d2-4dc6-96d7-e946b090a7b6,1760436084538112985,6.355286,-8.666992,7.726669,0.005371,-0.32666,0.938965,0.5419823993112516,-20.8046415277417,104.25732846321456,0.6044679284095764,-0.11451438069343567,-0.1396743208169937,0.7758840322494507
0a3c40ce-4131-4352-9066-f6b964e3d0c9,30632152-b5d2-4dc6-96d7-e946b090a7b6,1760436084548786985,3.486633,-9.399414,7.547379,0.019043,-0.321289,0.933105,0.41213678840497125,-20.700429479979167,104.07474064312366,0.6056432127952576,-0.11330883204936981,-0.13947229087352753,0.7751805186271667
0a3c40ce-4131-4352-9066-f6b964e3d0c9,30632152-b5d2-4dc6-96d7-e946b090a7b6,1760436084559460985,2.204895,-9.521484,7.791519,0.023926,-0.341309,0.941406,0.3410350935184583,-20.6678245893566,104.07581789696889,0.6055800318717957,-0.11265444755554199,-0.1396283358335495,0.7752971649169922
0a3c40ce-4131-4352-9066-f6b964e3d0c9,30632152-b5d2-4dc6-96d7-e946b090a7b6,1760436084570134985,1.04332,-9.279251,7.238388,0.030273,-0.336426,0.940918,0.2649434341756759,-20.650591948377755,104.0195195209733,0.6058843731880188,-0.11211737245321274,-0.139858677983284,0.7750957012176514
0a3c40ce-4131-4352-9066-f6b964e3d0c9,30632152-b5d2-4dc6-96d7-e946b090a7b6,1760436084578122985,-0.236511,-9.521484,6.750107,0.04541,-0.348633,0.931641,0.18103441567108355,-20.64034978871746,103.88047519737542,0.6067317128181458,-0.1116657555103302,-0.14009758830070496,0.774454653263092
0a3c40ce-4131-4352-9066-f6b964e3d0c9,30632152-b5d2-4dc6-96d7-e946b090a7b6,1760436084586108985,-1.213074,-9.887695,6.444931,0.044922,-0.349121,0.938477,0.09878339120946834,-20.64866159160089,103.81257972978543,0.6070818305015564,-0.11123710125684738,-0.14052335917949677,0.7741647958755493
0a3c40ce-4131-4352-9066-f6b964e3d0c9,30632152-b5d2-4dc6-96d7-e946b090a7b6,1760436084594094985,-2.494812,-10.070801,6.0215,0.057617,-0.361816,0.936523,0.009142629049340545,-20.66408239036294,103.73113153633659,0.6075069904327393,-0.11081340909004211,-0.1410236805677414,0.7738009691238403
0a3c40ce-4131-4352-9066-f6b964e3d0c9,30632152-b5d2-4dc6-96d7-e946b090a7b6,1760436084602080985,-3.349304,-9.58252,5.411148,0.062012,-0.35791,0.947266,-0.08474469748308569,-20.69361482690432,103.61842519369934,0.6081233620643616,-0.11047530174255371,-0.1416121870279312,0.7732574939727783
0a3c40ce-4131-4352-9066-f6b964e3d0c9,30632152-b5d2-4dc6-96d7-e946b090a7b6,1760436084612748985,-4.205704,-9.828568,4.613876,0.061035,-0.363281,0.949707,-0.18293875180580324,-20.73160915110691,103.49008828743227,0.6088302135467529,-0.1101737916469574,-0.14226622879505157,0.7726239562034607
0a3c40ce-4131-4352-9066-f6b964e3d0c9,30632152-b5d2-4dc6-96d7-e946b090a7b6,1760436084623416985,-5.182266,-9.157181,3.885269,0.073242,-0.359375,0.960937,-0.27808185817276837,-20.77724442978504,103.3640393021273,0.6095162630081177,-0.10993225127458572,-0.14295834302902222,0.7719894647598267
0a3c40ce-4131-4352-9066-f6b964e3d0c9,30632152-b5d2-4dc6-96d7-e946b090a7b6,1760436084634084985,-5.607605,-8.239746,3.091812,0.062988,-0.378418,0.964355,-0.369567631571148,-20.82707858922809,103.24399574260828,0.6101605892181396,-0.10973186045885086,-0.14366547763347626,0.771377444267273
0a3c40ce-4131-4352-9066-f6b964e3d0c9,30632152-b5d2-4dc6-96d7-e946b090a7b6,1760436084644724985,-5.851746,-6.103516,1.260757,0.058594,-0.390625,0.955566,-0.5282827455452955,-20.939628204845075,102.93319415726864,0.6119369864463806,-0.10965728759765625,-0.14497025310993195,0.7697349786758423
0a3c40ce-4131-4352-9066-f6b964e3d0c9,30632152-b5d2-4dc6-96d7-e946b090a7b6,1760436084655366985,-5.54657,-5.432129,0.341415,0.062988,-0.393066,0.961914,-0.5997010118343601,-20.996774769389944,102.83250750651219,0.6124640703201294,-0.1096113920211792,-0.14563864469528198,0.7691959738731384
0a3c40ce-4131-4352-9066-f6b964e3d0c9,30632152-b5d2-4dc6-96d7-e946b090a7b6,1760436084666008985,-4.87709,-4.579544,-0.326157,0.057617,-0.400879,0.975098,-0.6623540475802597,-21.052482609004908,102.69391960756111,0.6132566928863525,-0.10966622829437256,-0.14621427655220032,0.7684470415115356
0a3c40ce-4131-4352-9066-f6b964e3d0c9,30632152-b5d2-4dc6-96d7-e946b090a7b6,1760436084676735985,-3.959656,-4.211426,-0.875473,0.030762,-0.391113,0.987793,-0.7192809198254211,-21.09701884533357,102.48905751218769,0.6145105361938477,-0.1097857728600502,-0.1466209888458252,0.7673500180244446
0a3c40ce-4131-4352-9066-f6b964e3d0c9,30632152-b5d2-4dc6-96d7-e946b090a7b6,1760436084687462985,-2.616882,-3.479004,-1.485825,0.050781,-0.404785,0.991699,-0.7674224979797947,-21.126621222932684,102.29421259161956,0.6157218217849731,-0.10987253487110138,-0.14689037203788757,0.7663143873214722
0a3c40ce-4131-4352-9066-f6b964e3d0c9,30632152-b5d2-4dc6-96d7-e946b090a7b6,1760436084698189985,-1.701355,-2.868652,-1.974106,0.054199,-0.397949,0.983887,-0.8161402808448501,-21.15418853973592,102.10109940393356,0.6169208884239197,-0.10994347184896469,-0.14715102314949036,0.7652891278266907
0a3c40ce-4131-4352-9066-f6b964e3d0c9,30632152-b5d2-4dc6-96d7-e946b090a7b6,1760436084708827985,0.190735,-2.319336,-2.340317,0.047852,-0.392578,0.98584,-0.9079287988297938,-21.17287840350076,101.7295681503501,0.6192612051963806,-0.10990992188453674,-0.14741408824920654,0.7633507251739502
0a3c40ce-4131-4352-9066-f6b964e3d0c9,30632152-b5d2-4dc6-96d7-e946b090a7b6,1760436084719466985,2.204895,-2.13623,-2.523422,0.034668,-0.395996,0.992676,-0.9443719047648046,-21.163809849355523,101.56569857282679,0.6203150153160095,-0.10982885956764221,-0.1473938524723053,0.7625101804733276
0a3c40ce-4131-4352-9066-f6b964e3d0c9,30632152-b5d2-4dc6-96d7-e946b090a7b6,1760436084730105985,3.12233,-1.955032,-2.588272,0.033691,-0.400391,0.977051,-0.9745398321069058,-21.147027865501567,101.41558684949018,0.6212925314903259,-0.10972996801137924,-0.14730215072631836,0.7617459297180176
0a3c40ce-4131-4352-9066-f6b964e3d0c9,30632152-b5d2-4dc6-96d7-e946b090a7b6,1760436084738139985,4.219055,-1.77002,-2.035141,0.02832,-0.387695,0.955566,-1.000318865625186,-21.11475642249853,101.26277850282776,0.6223092675209045,-0.1095791608095169,-0.14708195626735687,0.7609798908233643
0a3c40ce-4131-4352-9066-f6b964e3d0c9,30632152-b5d2-4dc6-96d7-e946b090a7b6,1760436084746173985,5.073547,-1.77002,-2.157211,0.004883,-0.360352,0.967773,-1.027837632993996,-21.07737617171287,101.09888460937908,0.6234018802642822,-0.10940270125865936,-0.14682750403881073,0.7601596713066101
0a3c40ce-4131-4352-9066-f6b964e3d0c9,30632152-b5d2-4dc6-96d7-e946b090a7b6,1760436084754207985,5.439758,-2.01416,-1.428604,0.015137,-0.370117,0.952637,-1.0454674309103964,-21.030568825877673,100.98970795066133,0.6241535544395447,-0.10916969180107117,-0.1465098112821579,0.7596374750137329
0a3c40ce-4131-4352-9066-f6b964e3d0c9,30632152-b5d2-4dc6-96d7-e946b090a7b6,1760436084762241985,5.500793,-2.502441,-0.570297,0.007324,-0.374023,0.957519,-1.0678557080806208,-20.984612730921718,100.86206864588466,0.6250200867652893,-0.10893283039331436,-0.14620670676231384,0.7590171694755554
0a3c40ce-4131-4352-9066-f6b964e3d0c9,30632152-b5d2-4dc6-96d7-e946b090a7b6,1760436084770210985,5.744934,-2.990723,0.406265,0.01709,-0.380371,0.960449,-1.0860584971020197,-20.93762928553582,100.70026160516244,0.626118540763855,-0.10876094549894333,-0.14584223926067352,0.7582061886787415
0a3c40ce-4131-4352-9066-f6b964e3d0c9,30632152-b5d2-4dc6-96d7-e946b090a7b6,1760436084778179985,6.355286,-2.807617,1.138687,0.020996,-0.351562,0.958984,-1.1064123299590845,-20.88807736684378,100.53655766637321,0.6272284984588623,-0.10856229066848755,-0.14547158777713776,0.7573879957199097
0a3c40ce-4131-4352-9066-f6b964e3d0c9,30632152-b5d2-4dc6-96d7-e946b090a7b6,1760436084786148985,7.331848,-3.234863,2.17247,0.006348,-0.357422,0.977051,-1.1274898721833755,-20.82132773331866,100.36907627802411,0.6283798813819885,-0.10826803743839264,-0.1449889838695526,0.7565678358078003
0a3c40ce-4131-4352-9066-f6b964e3d0c9,30632152-b5d2-4dc6-96d7-e946b090a7b6,1760436084804733985,10.566711,-2.807617,3.396988,0.011719,-0.336914,0.995605,-1.1491115716285654,-20.64168656896147,100.126611484626,0.6301450133323669,-0.10744032263755798,-0.14369793236255646,0.7554619312286377
0a3c40ce-4131-4352-9066-f6b964e3d0c9,30632152-b5d2-4dc6-96d7-e946b090a7b6,1760436084815349985,13.00621,-2.260208,4.37355,0.023438,-0.32959,1.006348,-1.157511358746327,-20.515894262281154,100.0159941440633,0.6309977173805237,-0.1068277582526207,-0.14281420409679413,0.7550056576728821
0a3c40ce-4131-4352-9066-f6b964e3d0c9,30632152-b5d2-4dc6-96d7-e946b090a7b6,1760436084825965985,16.365051,-2.01416,4.556656,0.018555,-0.33252,1.02832,-1.15798701522563,-20.357083503772202,99.97261646315819,0.6314514875411987,-0.10599982738494873,-0.14173342287540436,0.7549468278884888
0a3c40ce-4131-4352-9066-f6b964e3d0c9,30632152-b5d2-4dc6-96d7-e946b090a7b6,1760436084834052985,19.66095,-2.075195,4.861832,0.016602,-0.319824,0.990234,-1.1541388161922268,-20.17601457568807,99.91908717899038,0.631999671459198,-0.10508859902620316,-0.14047367870807648,0.7548509240150452
0a3c40ce-4131-4352-9066-f6b964e3d0c9,30632152-b5d2-4dc6-96d7-e946b090a7b6,1760436084842140985,21.67511,-1.525879,4.983902,0.008301,-0.315918,0.972168,-1.15161962316207,-19.972651068053686,99.83221780444985,0.6327874064445496,-0.1040840893983841,-0.1390451043844223,0.7545945644378662
0a3c40ce-4131-4352-9066-f6b964e3d0c9,30632152-b5d2-4dc6-96d7-e946b090a7b6,1760436084850228985,22.712708,-1.831055,5.228043,0.016113,-0.314941,0.952637,-1.1456642396039252,-19.762303155479614,99.76298929506162,0.6334682703018188,-0.10303986072540283,-0.13756871223449707,0.7544369697570801
0a3c40ce-4131-4352-9066-f6b964e3d0c9,30632152-b5d2-4dc6-96d7-e946b090a7b6,1760436084858316985,22.161484,-2.260208,5.590439,0.021973,-0.323242,0.928223,-1.1453661611203538,-19.557948034761072,99.7187259534901,0.6339697241783142,-0.10195998847484589,-0.13618600368499756,0.7544129490852356
0a3c40ce-4131-4352-9066-f6b964e3d0c9,30632152-b5d2-4dc6-96d7-e946b090a7b6,1760436084868897985,21.308899,-2.319336,5.472183,0.01123,-0.311523,0.927246,-1.1450711652723684,-19.365816698913843,99.60007296505997,0.634946346282959,-0.10103398561477661,-0.1348184049129486,0.7539623975753784
0a3c40ce-4131-4352-9066-f6b964e3d0c9,30632152-b5d2-4dc6-96d7-e946b090a7b6,1760436084879478985,19.720078,-1.893997,5.285263,0.037109,-0.3125,0.898926,-1.1474959311140327,-19.186707720510835,99.47389529335983,0.6359542012214661,-0.10016857087612152,-0.1335463970899582,0.7534546256065369
0a3c40ce-4131-4352-9066-f6b964e3d0c9,30632152-b5d2-4dc6-96d7-e946b090a7b6,1760436084890059985,17.341614,-1.647949,4.922867,0.030273,-0.319336,0.919922,-1.1531604568983282,-19.03085855165576,99.35070486949614,0.6369135975837708,-0.09940528869628906,-0.13244913518428802,0.7529388070106506
0a3c40ce-4131-4352-9066-f6b964e3d0c9,30632152-b5d2-4dc6-96d7-e946b090a7b6,1760436084900714985,12.029648,-1.10054,3.820419,0.039551,-0.319824,0.902832,-1.1554647263337807,-18.79361945620305,99.16940919410506,0.6383375525474548,-0.09827306866645813,-0.13075199723243713,0.7521777749061584
0a3c40ce-4131-4352-9066-f6b964e3d0c9,30632152-b5d2-4dc6-96d7-e946b090a7b6,1760436084911371985,9.773254,-1.037598,3.637314,0.025391,-0.317383,0.920898,-1.1537459295019066,-18.70309300682518,99.05213927494366,0.6391984224319458,-0.09791119396686554,-0.1300497204065323,0.7516154646873474
0a3c40ce-4131-4352-9066-f6b964e3d0c9,30632152-b5d2-4dc6-96d7-e946b090a7b6,1760436084922028985,7.270813,-1.220703,2.965927,0.039062,-0.312988,0.919922,-1.1593560495724062,-18.63328539448778,98.97167034302774,0.6397885084152222,-0.09757446497678757,-0.12955592572689056,0.7512423992156982
0a3c40ce-4131-4352-9066-f6b964e3d0c9,30632152-b5d2-4dc6-96d7-e946b090a7b6,1760436084932695985,5.195618,-0.915527,2.725601,0.018066,-0.309082,0.950195,-1.1574786298509783,-18.58044425118379,98.95475697264084,0.6399534344673157,-0.0973096638917923,-0.12918563187122345,0.7512000203132629
0a3c40ce-4131-4352-9066-f6b964e3d0c9,30632152-b5d2-4dc6-96d7-e946b090a7b6,1760436084943363985,3.791809,-0.915527,2.908707,0.016602,-0.321777,0.955078,-1.1565721467135035,-18.54077329659514,98.81894405528197,0.6408832669258118,-0.09724593162536621,-0.12880606949329376,0.7504803538322449
0a3c40ce-4131-4352-9066-f6b964e3d0c9,30632152-b5d2-4dc6-96d7-e946b090a7b6,1760436084954031985,2.813339,-0.917435,2.786636,0.013184,-0.321777,0.944336,-1.1522020595673432,-18.515435535079874,98.67889925892527,0.6418297290802002,-0.09728940576314926,-0.12849734723567963,0.749718427658081
0a3c40ce-4131-4352-9066-f6b964e3d0c9,30632152-b5d2-4dc6-96d7-e946b090a7b6,1760436084962013985,-0.114441,-1.037598,2.660751,0.027832,-0.330566,0.944824,-1.1568030242527663,-18.502035732208505,98.40550523187974,0.6436246037483215,-0.0974901020526886,-0.12820346653461456,0.7482024431228638
0a3c40ce-4131-4352-9066-f6b964e3d0c9,30632152-b5d2-4dc6-96d7-e946b090a7b6,1760436084969998985,-1.398087,-0.97847,2.660751,0.01709,-0.325684,0.946289,-1.1579110205068461,-18.51782029233693,98.26594058428655,0.6445186138153076,-0.09772806614637375,-0.12819352746009827,0.747403085231781
0a3c40ce-4131-4352-9066-f6b964e3d0c9,30632152-b5d2-4dc6-96d7-e946b090a7b6,1760436084977983985,-2.252579,-0.97847,2.725601,0.023438,-0.324219,0.948242,-1.1608112737861453,-18.537376669453625,98.14273286534196,0.6452993154525757,-0.09795749932527542,-0.12823177874088287,0.7466924786567688
0a3c40ce-4131-4352-9066-f6b964e3d0c9,30632152-b5d2-4dc6-96d7-e946b090a7b6,1760436084985968985,-2.128601,-1.647949,2.965927,0.013184,-0.328613,0.950195,-1.162718236232272,-18.56153289162356,98.04079959954122,0.6459372639656067,-0.09819579869508743,-0.12831217050552368,0.7460955381393433
0a3c40ce-4131-4352-9066-f6b964e3d0c9,30632152-b5d2-4dc6-96d7-e946b090a7b6,1760436084996661985,-2.555847,-1.831055,2.965927,0.019531,-0.334961,0.952148,-1.1683791208791439,-18.592923451788458,97.96534397472492,0.646390974521637,-0.09842117875814438,-0.12848308682441711,0.7456433773040771
0a3c40ce-4131-4352-9066-f6b964e3d0c9,30632152-b5d2-4dc6-96d7-e946b090a7b6,1760436085007354985,-3.105164,-2.258301,3.149033,0.027832,-0.328125,0.945801,-1.1808280517975769,-18.624753463365774,97.80754027653171,0.6473715901374817,-0.09869763255119324,-0.12862402200698853,0.7447312474250793
0a3c40ce-4131-4352-9066-f6b964e3d0c9,30632152-b5d2-4dc6-96d7-e946b090a7b6,1760436085018047985,-3.65448,-1.831055,2.908707,0.02832,-0.335938,0.947266,-1.1938129646179934,-18.662986726128885,97.69604835021192,0.648043155670166,-0.09895548224449158,-0.12884889543056488,0.7440738081932068
0a3c40ce-4131-4352-9066-f6b964e3d0c9,30632152-b5d2-4dc6-96d7-e946b090a7b6,1760436085028723985,-4.388809,-1.771927,2.660751,0.029785,-0.361328,0.956055,-1.2079458100998537,-18.715377670142114,97.66800675143507,0.6481568813323975,-0.0991927832365036,-0.12924370169639587,0.7438746690750122
0a3c40ce-4131-4352-9066-f6b964e3d0c9,30632152-b5d2-4dc6-96d7-e946b090a7b6,1760436085039399985,-5.304337,-0.97847,2.843857,0.031738,-0.364746,0.962402,-1.214113946539181,-18.772285726929848,97.53250042129557,0.6489719152450562,-0.09962914139032364,-0.12952914834022522,0.7430556416511536
0a3c40ce-4131-4352-9066-f6b964e3d0c9,30632152-b5d2-4dc6-96d7-e946b090a7b6,1760436085050075985,-5.973816,-0.427246,2.660751,0.029297,-0.364746,0.963379,-1.2144264995434586,-18.83664655176125,97.39372890143072,0.6498059630393982,-0.10015034675598145,-0.12982577085494995,0.7422044277191162
0a3c40ce-4131-4352-9066-f6b964e3d0c9,30632152-b5d2-4dc6-96d7-e946b090a7b6,1760436085058053985,-7.501602,0.425339,2.35939,0.030273,-0.382812,0.962891,-1.2115609966293617,-18.99892926191562,97.14257160606178,0.6512693166732788,-0.10137931257486343,-0.1306353658437729,0.7406111359596252
0a3c40ce-4131-4352-9066-f6b964e3d0c9,30632152-b5d2-4dc6-96d7-e946b090a7b6,1760436085066031985,-8.295059,1.218796,2.054214,0.038086,-0.378906,0.960937,-1.2027929907667172,-19.091507180573558,97.02900430874085,0.6519181728363037,-0.10209415853023529,-0.13108085095882416,0.7398630380630493
0a3c40ce-4131-4352-9066-f6b964e3d0c9,30632152-b5d2-4dc6-96d7-e946b090a7b6,1760436085074009985,-9.210587,1.646042,1.626968,0.020508,-0.376465,0.958496,-1.1883701646396108,-19.192124595072663,96.90395926187894,0.6526380777359009,-0.10290553420782089,-0.1315341591835022,0.7390350103378296
0a3c40ce-4131-4352-9066-f6b964e3d0c9,30632152-b5d2-4dc6-96d7-e946b090a7b6,1760436085081987985,-9.454727,2.500534,1.501083,0.024902,-0.383789,0.956055,-1.1683035441384775,-19.296139050270472,96.8042247785384,0.6531965136528015,-0.10374456644058228,-0.13199833035469055,0.738341212272644
0a3c40ce-4131-4352-9066-f6b964e3d0c9,30632152-b5d2-4dc6-96d7-e946b090a7b6,1760436085092741985,-9.271622,3.110886,1.260757,0.025391,-0.388672,0.974609,-1.1433685292876223,-19.39603466406873,96.74089159545133,0.6535294651985168,-0.10455001890659332,-0.13244007527828217,0.7378537654876709
0a3c40ce-4131-4352-9066-f6b964e3d0c9,30632152-b5d2-4dc6-96d7-e946b090a7b6,1760436085103495985,-9.088516,3.477097,1.443863,0.025391,-0.396973,0.969727,-1.1119392015271936,-19.49870008295223,96.62368848336656,0.6542130708694458,-0.10547611117362976,-0.13281205296516418,0.7370482087135315
0a3c40ce-4131-4352-9066-f6b964e3d0c9,30632152-b5d2-4dc6-96d7-e946b090a7b6,1760436085114249985,-8.657455,3.477097,0.707626,0.02002,-0.378418,0.966309,-1.0810738609140198,-19.59188093228227,96.52320421151595,0.6547973155975342,-0.10632528364658356,-0.1331401914358139,0.7363480925559998
0a3c40ce-4131-4352-9066-f6b964e3d0c9,30632152-b5d2-4dc6-96d7-e946b090a7b6,1760436085122332985,-8.171082,3.601074,0.101089,0.019043,-0.370117,0.970703,-1.0499312406274788,-19.68042975663006,96.45793652031391,0.6551597714424133,-0.1071091964840889,-0.13346858322620392,0.7358525395393372
0a3c40ce-4131-4352-9066-f6b964e3d0c9,30632152-b5d2-4dc6-96d7-e946b090a7b6,1760436085130413985,-7.135391,3.782272,0.284195,0.023926,-0.376953,0.970703,-1.0172042147526255,-19.75457318725125,96.37160046774758,0.6556739807128906,-0.10784544050693512,-0.1336750090122223,0.735249400138855
0a3c40ce-4131-4352-9066-f6b964e3d0c9,30632152-b5d2-4dc6-96d7-e946b090a7b6,1760436085138494985,-6.401062,3.845215,-0.509262,0.025391,-0.400879,0.96875,-0.9874730642067207,-19.821935327411303,96.24611454532301,0.6564422249794006,-0.10856952518224716,-0.13381709158420563,0.7344310879707336
0a3c40ce-4131-4352-9066-f6b964e3d0c9,30632152-b5d2-4dc6-96d7-e946b090a7b6,1760436085146575985,-5.485535,3.234863,-0.452042,0.026367,-0.386719,0.959473,-0.963296111399234,-19.88719845132138,96.13209588546732,0.6571317315101624,-0.10923292487859726,-0.13398711383342743,0.733684778213501
0a3c40ce-4131-4352-9066-f6b964e3d0c9,30632152-b5d2-4dc6-96d7-e946b090a7b6,1760436085157064985,-5.058289,2.563477,-0.875473,0.022949,-0.373047,0.959961,-0.94666683941131,-19.9463065198899,96.00286318934054,0.6579153537750244,-0.10983078926801682,-0.13414540886878967,0.7328639030456543
0a3c40ce-4131-4352-9066-f6b964e3d0c9,30632152-b5d2-4dc6-96d7-e946b090a7b6,1760436085167553985,-4.753113,2.075195,-1.485825,0.027832,-0.370605,0.949707,-0.9371562063349862,-19.9989994094336,95.85527239611706,0.6588136553764343,-0.11036814749240875,-0.1342848688364029,0.7319501042366028
0a3c40ce-4131-4352-9066-f6b964e3d0c9,30632152-b5d2-4dc6-96d7-e946b090a7b6,1760436085178042985,-4.631042,1.525879,-2.218246,0.023438,-0.367676,0.965332,-0.934602512151059,-20.049602628105355,95.67304153443838,0.659925639629364,-0.11089019477367401,-0.1344163864850998,0.7308445572853088
0a3c40ce-4131-4352-9066-f6b964e3d0c9,30632152-b5d2-4dc6-96d7-e946b090a7b6,1760436085188699985,-4.203796,1.403809,-2.405167,0.027344,-0.364258,0.94873,-0.9344167200159411,-20.096752956830667,95.53732705581552,0.660740315914154,-0.11132324486970901,-0.1345834881067276,0.7300114035606384
0a3c40ce-4131-4352-9066-f6b964e3d0c9,30632152-b5d2-4dc6-96d7-e946b090a7b6,1760436085199356985,-3.900528,1.707077,-2.950668,0.031738,-0.373535,0.949707,-0.9400428756206259,-20.1394575906373,95.47431006050712,0.6610890626907349,-0.11160858720541,-0.1348259001970291,0.7296072244644165
0a3c40ce-4131-4352-9066-f6b964e3d0c9,30632152-b5d2-4dc6-96d7-e946b090a7b6,1760436085210013985,-3.959656,1.647949,-3.381729,0.027344,-0.363281,0.944824,-0.9400924142463453,-20.181602936566133,95.37504114495496,0.6616752743721008,-0.11196917295455933,-0.13499686121940613,0.7289887070655823
0a3c40ce-4131-4352-9066-f6b964e3d0c9,30632152-b5d2-4dc6-96d7-e946b090a7b6,1760436085218000985,-4.87709,1.890182,-3.74794,0.029297,-0.35791,0.948242,-0.9411235770382871,-20.268181623996014,95.10714744327022,0.6632824540138245,-0.11278069019317627,-0.135288804769516,0.7273471355438232
0a3c40ce-4131-4352-9066-f6b964e3d0c9,30632152-b5d2-4dc6-96d7-e946b090a7b6,1760436085225988985,-5.058289,2.01416,-3.68309,0.008301,-0.373047,0.948242,-0.9343351644648048,-20.318264619313574,94.97906166659314,0.664048433303833,-0.11326605081558228,-0.13544002175331116,0.726544201374054
0a3c40ce-4131-4352-9066-f6b964e3d0c9,30632152-b5d2-4dc6-96d7-e946b090a7b6,1760436085233976985,-5.302429,2.746582,-3.43895,0.013184,-0.37207,0.970703,-0.9197846477999617,-20.368725442720653,94.8183582382874,0.6650286912918091,-0.11384189128875732,-0.1355152577161789,0.725542426109314
0a3c40ce-4131-4352-9066-f6b964e3d0c9,30632152-b5d2-4dc6-96d7-e946b090a7b6,1760436085241964985,-5.485535,2.929688,-3.316879,0.006348,-0.365234,0.969238,-0.900448379486777,-20.418480627556338,94.67105102149256,0.6659290790557861,-0.11442823708057404,-0.1355702430009842,0.7246139049530029
0a3c40ce-4131-4352-9066-f6b964e3d0c9,30632152-b5d2-4dc6-96d7-e946b090a7b6,1760436085252645985,-5.853653,3.171921,-3.133774,0.013184,-0.365234,0.959473,-0.8790660807552445,-20.473514069079407,94.5426619150403,0.666705310344696,-0.11503640562295914,-0.13566426932811737,0.7237852215766907
0a3c40ce-4131-4352-9066-f6b964e3d0c9,30632152-b5d2-4dc6-96d7-e946b090a7b6,1760436085263326985,-5.607605,3.295898,-2.645493,0.007324,-0.37207,0.969727,-0.8540801638842468,-20.52619531587642,94.43730824038383,0.667341947555542,-0.11562635004520416,-0.13574454188346863,0.7230896949768066
0a3c40ce-4131-4352-9066-f6b964e3d0c9,30632152-b5d2-4dc6-96d7-e946b090a7b6,1760436085274007985,-5.241394,3.234863,-2.340317,-0.009277,-0.383301,0.966309,-0.8256368056046256,-20.580164081476813,94.31541483848615,0.6680848002433777,-0.11626553535461426,-0.135794997215271,0.7222912907600403
0a3c40ce-4131-4352-9066-f6b964e3d0c9,30632152-b5d2-4dc6-96d7-e946b090a7b6,1760436085282001985,-5.4245,2.990723,-1.66893,-0.008789,-0.384277,0.969727,-0.7999942624470159,-20.63484584919212,94.16819376856199,0.6689820289611816,-0.11692145466804504,-0.13583922386169434,0.7213460206985474
0a3c40ce-4131-4352-9066-f6b964e3d0c9,30632152-b5d2-4dc6-96d7-e946b090a7b6,1760436085289997985,-5.119324,2.441406,-1.241684,0.0,-0.387207,0.969238,-0.7707161801201027,-20.685509762122496,94.12613370665485,0.66922527551651,-0.1174522116780281,-0.13594336807727814,0.7210144996643066
0a3c40ce-4131-4352-9066-f6b964e3d0c9,30632152-b5d2-4dc6-96d7-e946b090a7b6,1760436085297993985,-5.119324,2.563477,-0.387192,-0.000488,-0.390625,0.975098,-0.745207091266934,-20.737520550721857,94.05873857205216,0.6696217060089111,-0.11799727380275726,-0.13605152070522308,0.7205368876457214
0a3c40ce-4131-4352-9066-f6b964e3d0c9,30632152-b5d2-4dc6-96d7-e946b090a7b6,1760436085305989985,-4.631042,2.075195,-0.082016,0.008301,-0.375,0.962891,-0.7217811608838226,-20.7883593112997,93.93265594156986,0.6703853011131287,-0.11859222501516342,-0.13610318303108215,0.719718873500824
0a3c40ce-4131-4352-9066-f6b964e3d0c9,30632152-b5d2-4dc6-96d7-e946b090a7b6,1760436085316784985,-4.264832,2.441406,0.406265,0.008301,-0.378906,0.960449,-0.6962636912177581,-20.83223807206351,93.80891861336023,0.6711434125900269,-0.11915683001279831,-0.13610030710697174,0.7189192175865173
0a3c40ce-4131-4352-9066-f6b964e3d0c9,30632152-b5d2-4dc6-96d7-e946b090a7b6,1760436085327579985,-3.717422,2.931595,0.406265,0.006348,-0.383301,0.974121,-0.670680950048498,-20.87379591523506,93.68953621687587,0.6718759536743164,-0.11970314383506775,-0.13608601689338684,0.7181464433670044
0a3c40ce-4131-4352-9066-f6b964e3d0c9,30632152-b5d2-4dc6-96d7-e946b090a7b6,1760436085338374985,-3.534317,3.477097,0.284195,0.008789,-0.382812,0.975098,-0.6383006480875805,-20.91052310460075,93.5760301189812,0.6725842952728271,-0.12025666981935501,-0.13600681722164154,0.7174054980278015
0a3c40ce-4131-4352-9066-f6b964e3d0c9,30632152-b5d2-4dc6-96d7-e946b090a7b6,1760436085348946985,-2.616882,4.394531,-0.387192,0.006836,-0.391602,0.963867,-0.5679502899884594,-20.975930266072528,93.35744249583246,0.6739615797996521,-0.12134096026420593,-0.13577137887477875,0.7159735560417175
0a3c40ce-4131-4352-9066-f6b964e3d0c9,30632152-b5d2-4dc6-96d7-e946b090a7b6,1760436085359517985,-2.250671,4.699707,-0.875473,-0.001953,-0.381836,0.973144,-0.5268455380589164,-21.001581775193028,93.28013570537018,0.6744643449783325,-0.1218404471874237,-0.13560745120048523,0.7154461145401001
0a3c40ce-4131-4352-9066-f6b964e3d0c9,30632152-b5d2-4dc6-96d7-e946b090a7b6,1760436085370088985,-1.88446,4.821777,-1.485825,-0.006836,-0.386719,0.983887,-0.48592988475320853,-21.0201993987182,93.18061964573408,0.6751129031181335,-0.12232327461242676,-0.13537649810314178,0.7147954702377319
0a3c40ce-4131-4352-9066-f6b964e3d0c9,30632152-b5d2-4dc6-96d7-e946b090a7b6,1760436085380716985,-1.213074,4.882812,-1.916885,-0.001465,-0.377441,0.962402,-0.4532921886026334,-21.03348051665421,93.04399682640968,0.6759882569313049,-0.12276642769575119,-0.13512066006660461,0.7139400243759155
0a3c40ce-4131-4352-9066-f6b964e3d0c9,30632152-b5d2-4dc6-96d7-e946b090a7b6,1760436085391346985,-1.152039,5.065918,-2.462387,0.000977,-0.381836,0.952637,-0.4131444503685126,-21.046096855019925,92.94965846498008,0.6766089200973511,-0.12320214509963989,-0.13486093282699585,0.7133259177207947
0a3c40ce-4131-4352-9066-f6b964e3d0c9,30632152-b5d2-4dc6-96d7-e946b090a7b6,1760436085401976985,-1.152039,4.516602,-3.133774,0.007813,-0.367188,0.958984,-0.37579395100035873,-21.06284603824846,92.84254829802886,0.6773005127906799,-0.12365956604480743,-0.1346289962530136,0.7126339077949524
0a3c40ce-4131-4352-9066-f6b964e3d0c9,30632152-b5d2-4dc6-96d7-e946b090a7b6,1760436085409985985,-0.909805,4.148483,-3.866196,-0.000488,-0.369629,0.964355,-0.31543776441215293,-21.085704769142172,92.56530581802838,0.6790677309036255,-0.1244950070977211,-0.13411343097686768,0.7109017372131348
0a3c40ce-4131-4352-9066-f6b964e3d0c9,30632152-b5d2-4dc6-96d7-e946b090a7b6,1760436085417994985,-1.029968,4.333496,-4.293442,-0.010742,-0.375488,0.953125,-0.2846488730881214,-21.097819827734632,92.41594287690684,0.6800161600112915,-0.12493245303630829,-0.133843332529068,0.709968626499176
0a3c40ce-4131-4352-9066-f6b964e3d0c9,30632152-b5d2-4dc6-96d7-e946b090a7b6,1760436085426003985,-0.846863,3.234863,-3.805161,-0.021973,-0.377441,0.967285,-0.2536584014003674,-21.106147545742072,92.29022123187652,0.6808214783668518,-0.12532053887844086,-0.13357356190681458,0.7091788053512573
0a3c40ce-4131-4352-9066-f6b964e3d0c9,30632152-b5d2-4dc6-96d7-e946b090a7b6,1760436085434012985,-0.724792,3.173828,-4.110336,-0.024902,-0.387207,0.969727,-0.22889343077010563,-21.114017843927353,92.15836081566508,0.681657075881958,-0.12567411363124847,-0.1333305686712265,0.7083587646484375
0a3c40ce-4131-4352-9066-f6b964e3d0c9,30632152-b5d2-4dc6-96d7-e946b090a7b6,1760436085444685985,-0.60463,2.80571,-3.622055,-0.026367,-0.387207,0.949707,-0.2042730027944281,-21.1243455371056,92.0213466910305,0.6825205683708191,-0.1260470151901245,-0.13309729099273682,0.707504391670227
0a3c40ce-4131-4352-9066-f6b964e3d0c9,30632152-b5d2-4dc6-96d7-e946b090a7b6,1760436085455358985,-0.541687,2.197266,-3.43895,-0.019043,-0.354004,0.953613,-0.18487835640558303,-21.125739441100727,91.93558194652269,0.6830708384513855,-0.12627457082271576,-0.13289590179920197,0.7069703936576843
0a3c40ce-4131-4352-9066-f6b964e3d0c9,30632152-b5d2-4dc6-96d7-e946b090a7b6,1760436085466031985,-0.480652,2.441406,-3.011703,-0.015137,-0.382324,0.965332,-0.1640692859471646,-21.130945869814415,91.83346099566224,0.6837188601493835,-0.1265522986650467,-0.13269123435020447,0.7063325047492981
0a3c40ce-4131-4352-9066-f6b964e3d0c9,30632152-b5d2-4dc6-96d7-e946b090a7b6,1760436085476742985,-0.360489,1.646042,-3.076553,-0.017578,-0.38623,0.945312,-0.14677134459437347,-21.137925483276852,91.69635943591938,0.684575617313385,-0.12685918807983398,-0.13247933983802795,0.7054868340492249
0a3c40ce-4131-4352-9066-f6b964e3d0c9,30632152-b5d2-4dc6-96d7-e946b090a7b6,1760436085487452985,-0.480652,1.525879,-2.340317,-0.025879,-0.361328,0.935547,-0.12949905962245628,-21.14737203915516,91.58359846843243,0.6852788329124451,-0.1271522343158722,-0.132309228181839,0.7047829627990723
0a3c40ce-4131-4352-9066-f6b964e3d0c9,30632152-b5d2-4dc6-96d7-e946b090a7b6,1760436085498162985,-0.480652,1.098633,-1.66893,-0.01416,-0.372559,0.947266,-0.1102170010043593,-21.15217630278755,91.50981174645857,0.685749351978302,-0.12738469243049622,-0.13214145600795746,0.7043145895004272
0a3c40ce-4131-4352-9066-f6b964e3d0c9,30632152-b5d2-4dc6-96d7-e946b090a7b6,1760436085508782985,-0.60463,0.364304,-0.692368,-0.025879,-0.365723,0.95459,-0.08319871705040191,-21.160412731448414,91.32892102274678,0.6868821382522583,-0.1278083175420761,-0.13182878494262695,0.7031916975975037
0a3c40ce-4131-4352-9066-f6b964e3d0c9,30632152-b5d2-4dc6-96d7-e946b090a7b6,1760436085519405985,0.068665,-0.183105,-0.204086,-0.033691,-0.381348,0.952148,-0.07236571941919452,-21.16497275565275,91.21553134148022,0.6875849366188049,-0.12803249061107635,-0.1316651999950409,0.7024943232536316
0a3c40ce-4131-4352-9066-f6b964e3d0c9,30632152-b5d2-4dc6-96d7-e946b090a7b6,1760436085530028985,-0.299454,-0.429153,0.162125,-0.015137,-0.366699,0.943848,-0.06217531923755406,-21.168023609543848,91.11960236579866,0.6881810426712036,-0.12822340428829193,-0.13151545822620392,0.7019036412239075
0a3c40ce-4131-4352-9066-f6b964e3d0c9,30632152-b5d2-4dc6-96d7-e946b090a7b6,1760436085538028985,-0.663757,-0.061035,0.341415,-0.015625,-0.369141,0.950195,-0.057736728097619795,-21.166942474257507,91.01083571720984,0.6888532638549805,-0.12836883962154388,-0.13136039674282074,0.7012463808059692
0a3c40ce-4131-4352-9066-f6b964e3d0c9,30632152-b5d2-4dc6-96d7-e946b090a7b6,1760436085546030985,-0.663757,-0.671387,0.833511,-0.010742,-0.366699,0.947754,-0.05117352397356717,-21.171263383323655,90.88397379486631,0.6896318197250366,-0.12858031690120697,-0.13120511174201965,0.700471043586731
0a3c40ce-4131-4352-9066-f6b964e3d0c9,30632152-b5d2-4dc6-96d7-e946b090a7b6,1760436085554032985,-1.276016,-0.852585,1.077652,-0.000488,-0.375977,0.949219,-0.04839250319602163,-21.18406470302853,90.81210766180021,0.6900597214698792,-0.12875667214393616,-0.1311858892440796,0.7000206708908081
0a3c40ce-4131-4352-9066-f6b964e3d0c9,30632152-b5d2-4dc6-96d7-e946b090a7b6,1760436085562034985,-1.152039,-0.610352,0.894547,-0.000488,-0.384277,0.946289,-0.048957743749237205,-21.195402631738677,90.80364163508098,0.690097987651825,-0.12883120775222778,-0.13124902546405792,0.6999573707580566
0a3c40ce-4131-4352-9066-f6b964e3d0c9,30632152-b5d2-4dc6-96d7-e946b090a7b6,1760436085572700985,-1.457214,-0.732422,1.077652,0.008789,-0.384277,0.942383,-0.05094152963169858,-21.21471998936849,90.71108283763897,0.6906390190124512,-0.12904152274131775,-0.1312747597694397,0.6993799209594727
0a3c40ce-4131-4352-9066-f6b964e3d0c9,30632152-b5d2-4dc6-96d7-e946b090a7b6,1760436085583366985,-1.51825,-0.549316,0.955582,0.010742,-0.381348,0.95166,-0.054224278464920624,-21.23573871993935,90.62568998287074,0.6911324262619019,-0.12924610078334808,-0.13132652640342712,0.6988447308540344
0a3c40ce-4131-4352-9066-f6b964e3d0c9,30632152-b5d2-4dc6-96d7-e946b090a7b6,1760436085594032985,-2.006531,-0.305176,0.650406,0.012207,-0.374023,0.959961,-0.05519257710486283,-21.258634091466032,90.56882789738636,0.6914520263671875,-0.12944354116916656,-0.1314077526330948,0.6984766125679016
0a3c40ce-4131-4352-9066-f6b964e3d0c9,30632152-b5d2-4dc6-96d7-e946b090a7b6,1760436085604698985,-2.067566,-0.061035,0.101089,-0.000488,-0.397949,0.955566,-0.05673516930547986,-21.306708854467665,90.3679638884557,0.6926187872886658,-0.1299549639225006,-0.13148243725299835,0.6972103118896484
0a3c40ce-4131-4352-9066-f6b964e3d0c9,30632152-b5d2-4dc6-96d7-e946b090a7b6,1760436085615364985,-2.252579,-0.307083,-0.204086,0.012207,-0.377441,0.956543,-0.06210080726253334,-21.326834251340998,90.23985462319492,0.693368673324585,-0.13019108772277832,-0.13149182498455048,0.6964185833930969
0a3c40ce-4131-4352-9066-f6b964e3d0c9,30632152-b5d2-4dc6-96d7-e946b090a7b6,1760436085626030985,-1.88446,-0.366211,-0.387192,0.002441,-0.379883,0.949707,-0.0675937614134723,-21.348461612729803,90.12653083487857,0.694025993347168,-0.13041873276233673,-0.13152755796909332,0.6957141160964966
0a3c40ce-4131-4352-9066-f6b964e3d0c9,30632152-b5d2-4dc6-96d7-e946b090a7b6,1760436085634030985,-2.128601,-0.305176,-1.058578,0.021484,-0.390625,0.96582,-0.0781730064956313,-21.37455867892159,90.03154613527289,0.6945603489875793,-0.13062158226966858,-0.13164180517196655,0.6951218247413635
0a3c40ce-4131-4352-9066-f6b964e3d0c9,30632152-b5d2-4dc6-96d7-e946b090a7b6,1760436085642028985,-1.886368,-0.001907,-1.485825,0.002441,-0.400879,0.958496,-0.09402885851297708,-21.39187863136813,89.91722635560366,0.6952153444290161,-0.13076187670230865,-0.13171255588531494,0.6944268941879272
0a3c40ce-4131-4352-9066-f6b964e3d0c9,30632152-b5d2-4dc6-96d7-e946b090a7b6,1760436085650026985,-1.945496,0.061035,-2.035141,0.02832,-0.386719,0.96582,-0.10557497920378327,-21.41758074092799,89.8439780427139,0.6956161856651306,-0.13093219697475433,-0.13185463845729828,0.693966269493103
0a3c40ce-4131-4352-9066-f6b964e3d0c9,30632152-b5d2-4dc6-96d7-e946b090a7b6,1760436085658024985,-2.006531,0.610352,-2.645493,0.024414,-0.395996,0.96875,-0.11990201579829186,-21.440637191323233,89.83323458783923,0.695638120174408,-0.13099782168865204,-0.13206890225410461,0.693891167640686
0a3c40ce-4131-4352-9066-f6b964e3d0c9,30632152-b5d2-4dc6-96d7-e946b090a7b6,1760436085668699985,-1.51825,0.854492,-3.259659,0.007813,-0.398926,0.972168,-0.13507190398838143,-21.45973240312574,89.68406774684907,0.6965011954307556,-0.13119401037693024,-0.13210590183734894,0.6929806470870972
0a3c40ce-4131-4352-9066-f6b964e3d0c9,30632152-b5d2-4dc6-96d7-e946b090a7b6,1760436085679374985,-1.276016,1.157761,-4.236221,0.008789,-0.387207,0.972168,-0.13936213218244559,-21.479448533432883,89.5347558208718,0.6973757147789001,-0.13146016001701355,-0.13207997381687164,0.6920550465583801
0a3c40ce-4131-4352-9066-f6b964e3d0c9,30632152-b5d2-4dc6-96d7-e946b090a7b6,1760436085690049985,-0.846863,1.89209,-4.541397,-0.000488,-0.392578,0.962891,-0.1473247062651123,-21.492292748070213,89.40917051843621,0.6981096267700195,-0.13163508474826813,-0.13206177949905396,0.6912848949432373
0a3c40ce-4131-4352-9066-f6b964e3d0c9,30632152-b5d2-4dc6-96d7-e946b090a7b6,1760436085700683985,-0.116348,2.134323,-5.212784,0.010254,-0.402344,0.96582,-0.1500988761733957,-21.511832692581926,89.1351289150959,0.6997348070144653,-0.1320532113313675,-0.13188107311725616,0.6895944476127625
0a3c40ce-4131-4352-9066-f6b964e3d0c9,30632152-b5d2-4dc6-96d7-e946b090a7b6,1760436085711320985,0.801086,2.258301,-5.392075,0.023926,-0.387695,0.976562,-0.15309701735086365,-21.507124222878925,88.95659134265665,0.700810432434082,-0.13221170008182526,-0.13166522979736328,0.6885122060775757
0a3c40ce-4131-4352-9066-f6b964e3d0c9,30632152-b5d2-4dc6-96d7-e946b090a7b6,1760436085721957985,1.226425,2.317429,-5.147934,-0.003418,-0.387207,0.960449,-0.15148857804024593,-21.501886952546798,88.8121979012772,0.7016854286193848,-0.13235506415367126,-0.13145726919174194,0.68763267993927
0a3c40ce-4131-4352-9066-f6b964e3d0c9,30632152-b5d2-4dc6-96d7-e946b090a7b6,1760436085732760985,1.777649,2.13623,-5.147934,-0.016113,-0.375488,0.969727,-0.14211051756057527,-21.490730752677656,88.72060382150033,0.7022586464881897,-0.13244792819023132,-0.13122710585594177,0.6870733499526978
0a3c40ce-4131-4352-9066-f6b964e3d0c9,30632152-b5d2-4dc6-96d7-e946b090a7b6,1760436085743563985,2.449036,2.01416,-5.331039,-0.012695,-0.391602,0.955566,-0.13224524939357474,-21.473678496875905,88.60033556339188,0.703010618686676,-0.1325400173664093,-0.13092541694641113,0.6863437294960022
0a3c40ce-4131-4352-9066-f6b964e3d0c9,30632152-b5d2-4dc6-96d7-e946b090a7b6,1760436085754366985,2.325058,2.195358,-5.270004,-0.01123,-0.383789,0.950195,-0.12524738235795357,-21.458066641597448,88.49057203302262,0.7036939859390259,-0.13261133432388306,-0.13066205382347107,0.6856794953346252
0a3c40ce-4131-4352-9066-f6b964e3d0c9,30632152-b5d2-4dc6-96d7-e946b090a7b6,1760436085762319985,2.508163,1.890182,-4.724503,-0.019043,-0.388672,0.959961,-0.11339132381430729,-21.42538892196089,88.29877568681705,0.7048923969268799,-0.13269957900047302,-0.13017186522483826,0.6845237612724304
0a3c40ce-4131-4352-9066-f6b964e3d0c9,30632152-b5d2-4dc6-96d7-e946b090a7b6,1760436085770273985,2.26593,1.342773,-4.781723,-0.000977,-0.373535,0.952637,-0.11251119033913609,-21.407811799466806,88.15532903297321,0.7057703137397766,-0.13275937736034393,-0.1298954039812088,0.683659553527832
0a3c40ce-4131-4352-9066-f6b964e3d0c9,30632152-b5d2-4dc6-96d7-e946b090a7b6,1760436085778227985,2.388,1.098633,-4.842758,-0.006348,-0.388184,0.966797,-0.1176524561396655,-21.392168906853946,87.98541701502042,0.7067957520484924,-0.13282468914985657,-0.1296369731426239,0.6826357841491699
0a3c40ce-4131-4352-9066-f6b964e3d0c9,30632152-b5d2-4dc6-96d7-e946b090a7b6,1760436085786181985,1.899719,0.244141,-4.659653,-0.014648,-0.37793,0.942871,-0.12014686283374568,-21.37971932076409,87.8293658433064,0.7077364921569824,-0.13290935754776,-0.12939734756946564,0.6816893815994263
0a3c40ce-4131-4352-9066-f6b964e3d0c9,30632152-b5d2-4dc6-96d7-e946b090a7b6,1760436085796835985,1.777649,-0.305176,-4.781723,-0.003906,-0.387695,0.944336,-0.13504618921377995,-21.37158358545689,87.69059138172676,0.7085542678833008,-0.13292710483074188,-0.12928010523319244,0.6808581948280334
0a3c40ce-4131-4352-9066-f6b964e3d0c9,30632152-b5d2-4dc6-96d7-e946b090a7b6,1760436085807489985,1.838684,-1.037598,-4.354477,-0.004883,-0.373535,0.944824,-0.1560618168475407,-21.357897327918938,87.56744431590836,0.7092779278755188,-0.13285666704177856,-0.12918606400489807,0.6801349520683289
0a3c40ce-4131-4352-9066-f6b964e3d0c9,30632152-b5d2-4dc6-96d7-e946b090a7b6,1760436085818143985,2.019882,-1.588821,-4.598618,0.010254,-0.377441,0.956543,-0.18519146023027847,-21.342350790812787,87.47755062902493,0.7097967267036438,-0.13268885016441345,-0.12917008996009827,0.679629385471344
0a3c40ce-4131-4352-9066-f6b964e3d0c9,30632152-b5d2-4dc6-96d7-e946b090a7b6,1760436085828910985,2.691269,-1.771927,-4.110336,0.013672,-0.369141,0.945801,-0.2187393233056128,-21.319985324968556,87.43705792792926,0.7100253701210022,-0.1323968917131424,-0.12919855117797852,0.6794421672821045
0a3c40ce-4131-4352-9066-f6b964e3d0c9,30632152-b5d2-4dc6-96d7-e946b090a7b6,1760436085839678985,3.059387,-2.258301,-4.110336,0.021484,-0.366211,0.9375,-0.2559559431346967,-21.294881428532648,87.36143463887272,0.7104612588882446,-0.13210582733154297,-0.1291932612657547,0.6790441274642944
0a3c40ce-4131-4352-9066-f6b964e3d0c9,30632152-b5d2-4dc6-96d7-e946b090a7b6,1760436085850446985,3.303528,-2.319336,-3.866196,0.016113,-0.36377,0.933594,-0.29744769253534276,-21.268118586266088,87.23206625542744,0.7112122774124146,-0.13183973729610443,-0.12914329767227173,0.6783188581466675
0a3c40ce-4131-4352-9066-f6b964e3d0c9,30632152-b5d2-4dc6-96d7-e946b090a7b6,1760436085861020985,3.242493,-1.77002,-3.74794,0.024414,-0.374023,0.938477,-0.3778418351849985,-21.21066548005342,87.08656340435103,0.7120504379272461,-0.13117088377475739,-0.1291360706090927,0.6775703430175781
0a3c40ce-4131-4352-9066-f6b964e3d0c9,30632152-b5d2-4dc6-96d7-e946b090a7b6,1760436085871593985,2.876282,-1.159668,-3.68309,0.024414,-0.367188,0.947754,-0.4135737992643688,-21.188844561894545,86.99721916562461,0.7125641107559204,-0.1309245526790619,-0.12912720441818237,0.6770794987678528
0a3c40ce-4131-4352-9066-f6b964e3d0c9,30632152-b5d2-4dc6-96d7-e946b090a7b6,1760436085882166985,2.693176,-0.549316,-3.927231,0.02832,-0.351074,0.939941,-0.44425527943423376,-21.16400639321195,86.88178315356389,0.7132407426834106,-0.1307186484336853,-0.12903982400894165,0.6764232516288757
0a3c40ce-4131-4352-9066-f6b964e3d0c9,30632152-b5d2-4dc6-96d7-e946b090a7b6,1760436085890140985,1.714706,-0.123978,-4.053116,0.023438,-0.367676,0.933594,-0.469117435447928,-21.144283060677346,86.75772286799811,0.7139680981636047,-0.1305886059999466,-0.1289370208978653,0.675700306892395
0a3c40ce-4131-4352-9066-f6b964e3d0c9,30632152-b5d2-4dc6-96d7-e946b090a7b6,1760436085898114985,1.472473,0.610352,-4.171371,0.032227,-0.358398,0.946289,-0.49001820823120484,-21.13208400691308,86.6253267717598,0.7147393226623535,-0.1305381804704666,-0.12884469330310822,0.6749119162559509
0a3c40ce-4131-4352-9066-f6b964e3d0c9,30632152-b5d2-4dc6-96d7-e946b090a7b6,1760436085906088985,0.312805,1.159668,-4.293442,0.030273,-0.380859,0.939941,-0.5053709829979909,-21.1264022080068,86.49151877434888,0.7155164480209351,-0.1305626928806305,-0.12875467538833618,0.6741004586219788
0a3c40ce-4131-4352-9066-f6b964e3d0c9,30632152-b5d2-4dc6-96d7-e946b090a7b6,1760436085914062985,-0.541687,1.403809,-4.659653,0.032715,-0.368652,0.943359,-0.5196225462611725,-21.13383429928499,86.351944386109,0.7163121104240417,-0.13068224489688873,-0.1287282258272171,0.6732366681098938
0a3c40ce-4131-4352-9066-f6b964e3d0c9,30632152-b5d2-4dc6-96d7-e946b090a7b6,1760436085923651985,-1.701355,2.868652,-5.270004,0.02832,-0.372559,0.939453,-0.5335496278721682,-21.161484788095375,86.18980865071795,0.7172152400016785,-0.13095590472221375,-0.12879227101802826,0.6722089052200317
0a3c40ce-4131-4352-9066-f6b964e3d0c9,30632152-b5d2-4dc6-96d7-e946b090a7b6,1760436085933241985,-2.189636,3.601074,-5.57518,0.02002,-0.37793,0.957519,-0.5275635600578193,-21.181569309377476,86.07007594740344,0.7178998589515686,-0.1312515139579773,-0.12873533368110657,0.6714308857917786
0a3c40ce-4131-4352-9066-f6b964e3d0c9,30632152-b5d2-4dc6-96d7-e946b090a7b6,1760436085942831985,-2.922058,4.089355,-5.884171,0.020996,-0.362793,0.949219,-0.5178942071826932,-21.205807619209406,85.9631477341078,0.7185078263282776,-0.1315804123878479,-0.12869378924369812,0.6707237362861633
0a3c40ce-4131-4352-9066-f6b964e3d0c9,30632152-b5d2-4dc6-96d7-e946b090a7b6,1760436085952421985,-3.166199,4.211426,-6.006241,0.017578,-0.376953,0.952637,-0.5035921601029532,-21.237119893645286,85.85008821644554,0.7191476225852966,-0.1319877803325653,-0.12865689396858215,0.6699645519256592
0a3c40ce-4131-4352-9066-f6b964e3d0c9,30632152-b5d2-4dc6-96d7-e946b090a7b6,1760436085962011985,-3.900528,4.270554,-6.246567,0.000488,-0.365234,0.963379,-0.48472320578812667,-21.268984634721825,85.7237301608442,0.7198687195777893,-0.1324402391910553,-0.12857848405838013,0.6691153049468994
0a3c40ce-4131-4352-9066-f6b964e3d0c9,30632152-b5d2-4dc6-96d7-e946b090a7b6,1760436085972692985,-4.020691,4.516602,-6.372452,0.008789,-0.376465,0.948242,-0.4667473083245432,-21.307933973399777,85.58630888078476,0.7206437587738037,-0.1329444944858551,-0.1285332590341568,0.6681889295578003
0a3c40ce-4131-4352-9066-f6b964e3d0c9,30632152-b5d2-4dc6-96d7-e946b090a7b6,1760436085983373985,-3.77655,4.394531,-6.124496,-0.008301,-0.388672,0.943359,-0.4428799806186729,-21.350151137506117,85.44062697375843,0.7214683294296265,-0.1335129737854004,-0.12845928966999054,0.6671990752220154
0a3c40ce-4131-4352-9066-f6b964e3d0c9,30632152-b5d2-4dc6-96d7-e946b090a7b6,1760436085994054985,-4.264832,3.90625,-5.884171,-0.009277,-0.398438,0.949219,-0.4216181885911777,-21.395663947412796,85.36894728049282,0.7218542695045471,-0.1340039074420929,-0.12850621342658997,0.6666749119758606
0a3c40ce-4131-4352-9066-f6b964e3d0c9,30632152-b5d2-4dc6-96d7-e946b090a7b6,1760436086004722985,-4.508972,4.211426,-5.941391,-0.009766,-0.404297,0.962891,-0.3983443285132224,-21.446266465323728,85.28783989018291,0.7222906351089478,-0.13454948365688324,-0.12855835258960724,0.6660820841789246
0a3c40ce-4131-4352-9066-f6b964e3d0c9,30632152-b5d2-4dc6-96d7-e946b090a7b6,1760436086015388985,-3.959656,3.967285,-5.758286,-0.015625,-0.397461,0.976562,-0.3756308546134095,-21.49143381042161,85.1793009024269,0.7228917479515076,-0.13508833944797516,-0.1285494565963745,0.6653222441673279
0a3c40ce-4131-4352-9066-f6b964e3d0c9,30632152-b5d2-4dc6-96d7-e946b090a7b6,1760436086026054985,-3.105164,3.356934,-5.392075,-0.010742,-0.398926,0.975586,-0.3534594770707604,-21.5252473688558,85.13085853693379,0.7231566309928894,-0.1354849636554718,-0.12854838371276855,0.6649538278579712
0a3c40ce-4131-4352-9066-f6b964e3d0c9,30632152-b5d2-4dc6-96d7-e946b090a7b6,1760436086034098985,-1.943588,2.317429,-4.541397,-0.019531,-0.396973,0.980469,-0.31844108827687645,-21.572273648938303,84.98834436667195,0.7239649295806885,-0.13614505529403687,-0.12843070924282074,0.6639614701271057
0a3c40ce-4131-4352-9066-f6b964e3d0c9,30632152-b5d2-4dc6-96d7-e946b090a7b6,1760436086042142985,-1.274109,1.586914,-3.805161,-0.024902,-0.393066,0.969727,-0.3074956369212247,-21.59092300864141,84.90149164428878,0.7244574427604675,-0.1364237368106842,-0.1283661276102066,0.6633793115615845
0a3c40ce-4131-4352-9066-f6b964e3d0c9,30632152-b5d2-4dc6-96d7-e946b090a7b6,1760436086050186985,-0.419617,1.403809,-3.622055,-0.013184,-0.391602,0.970703,-0.29568765409526826,-21.59841838220307,84.81025922395591,0.7249894142150879,-0.13664166629314423,-0.12822607159614563,0.6627800464630127
0a3c40ce-4131-4352-9066-f6b964e3d0c9,30632152-b5d2-4dc6-96d7-e946b090a7b6,1760436086058230985,0.25177,1.220703,-3.076553,-0.020508,-0.382812,0.966797,-0.2816215473556043,-21.60062577001638,84.69913419316343,0.7256448268890381,-0.136861190199852,-0.12801717221736908,0.6620575785636902
0a3c40ce-4131-4352-9066-f6b964e3d0c9,30632152-b5d2-4dc6-96d7-e946b090a7b6,1760436086066945985,0.371933,1.218796,-2.035141,-0.019531,-0.386719,0.96582,-0.2687531738692588,-21.598190092647414,84.60717078051945,0.7261932492256165,-0.1370227336883545,-0.12781170010566711,0.6614621877670288
0a3c40ce-4131-4352-9066-f6b964e3d0c9,30632152-b5d2-4dc6-96d7-e946b090a7b6,1760436086075660985,0.495911,0.976562,-1.61171,-0.019531,-0.388184,0.956055,-0.25595006921705044,-21.598618233790663,84.54551347386487,0.7265627980232239,-0.1371680498123169,-0.12765924632549286,0.6610556244850159
0a3c40ce-4131-4352-9066-f6b964e3d0c9,30632152-b5d2-4dc6-96d7-e946b090a7b6,1760436086084375985,0.860214,0.730515,-0.692368,-0.023438,-0.396484,0.95459,-0.24269839127070375,-21.59844086842918,84.53538955177848,0.7266361713409424,-0.13725464046001434,-0.12756207585334778,0.6609757542610168
0a3c40ce-4131-4352-9066-f6b964e3d0c9,30632152-b5d2-4dc6-96d7-e946b090a7b6,1760436086093090985,0.860214,0.852585,-0.020981,-0.010742,-0.37207,0.952637,-0.23547973270859954,-21.596245568009955,84.50516744403575,0.7268211841583252,-0.13731597363948822,-0.12746743857860565,0.6607778072357178
0a3c40ce-4131-4352-9066-f6b964e3d0c9,30632152-b5d2-4dc6-96d7-e946b090a7b6,1760436086102729985,1.04332,0.669479,0.284195,-0.01123,-0.375,0.949219,-0.22923108377040177,-21.598117091242916,84.4313395828343,0.727251410484314,-0.13744595646858215,-0.1273500621318817,0.6602998971939087
0a3c40ce-4131-4352-9066-f6b964e3d0c9,30632152-b5d2-4dc6-96d7-e946b090a7b6,1760436086112368985,0.984192,0.610352,1.195908,0.002441,-0.377441,0.951172,-0.22030386150592735,-21.593199027385094,84.39216096978849,0.7274930477142334,-0.13750967383384705,-0.1272180825471878,0.6600458025932312
0a3c40ce-4131-4352-9066-f6b964e3d0c9,30632152-b5d2-4dc6-96d7-e946b090a7b6,1760436086122007985,1.169205,1.157761,1.443863,-0.003418,-0.375977,0.954102,-0.20423808832265808,-21.582014648364652,84.40442545847975,0.727453887462616,-0.1375175565481186,-0.12706643342971802,0.6601165533065796
0a3c40ce-4131-4352-9066-f6b964e3d0c9,30632152-b5d2-4dc6-96d7-e946b090a7b6,1760436086132698985,1.348495,1.03569,1.443863,0.010742,-0.367676,0.958008,-0.1920608515821176,-21.565008380150452,84.3691512195112,0.7276912927627563,-0.1375187337398529,-0.12684890627861023,0.6598964333534241
0a3c40ce-4131-4352-9066-f6b964e3d0c9,30632152-b5d2-4dc6-96d7-e946b090a7b6,1760436086143389985,1.350403,1.098633,1.382828,0.002441,-0.368164,0.940918,-0.17726218549765857,-21.553420323722925,84.32490969442382,0.7279765009880066,-0.13757923245429993,-0.1266351342201233,0.6596102118492126
0a3c40ce-4131-4352-9066-f6b964e3d0c9,30632152-b5d2-4dc6-96d7-e946b090a7b6,1760436086154080985,1.228333,1.220703,1.684189,-0.006836,-0.364258,0.943848,-0.15836073512291624,-21.538481863328776,84.27563210686884,0.7282991409301758,-0.13764743506908417,-0.12636993825435638,0.659290611743927
0a3c40ce-4131-4352-9066-f6b964e3d0c9,30632152-b5d2-4dc6-96d7-e946b090a7b6,1760436086164732985,0.801086,1.220703,1.749039,-0.00293,-0.373535,0.936523,-0.14053629932114742,-21.53321529638586,84.23265038339275,0.728572428226471,-0.1377638280391693,-0.1261747032403946,0.6590017080307007
0a3c40ce-4131-4352-9066-f6b964e3d0c9,30632152-b5d2-4dc6-96d7-e946b090a7b6,1760436086175385985,0.371933,0.97847,1.871109,0.000977,-0.356934,0.93457,-0.1233155694808909,-21.528663982180596,84.19459228408998,0.7288157343864441,-0.1378757655620575,-0.1259932667016983,0.6587439179420471
0a3c40ce-4131-4352-9066-f6b964e3d0c9,30632152-b5d2-4dc6-96d7-e946b090a7b6,1760436086186038985,-0.297546,1.098633,1.932144,0.001465,-0.378418,0.93457,-0.1101742705584939,-21.526993123487323,84.16140075726234,0.7290229797363281,-0.13797713816165924,-0.12586012482643127,0.6585187911987305
0a3c40ce-4131-4352-9066-f6b964e3d0c9,30632152-b5d2-4dc6-96d7-e946b090a7b6,1760436086194048985,-1.335144,1.403809,1.810074,-0.00293,-0.368164,0.958984,-0.07794451193229278,-21.54669538338455,84.19798119043539,0.7288241982460022,-0.1382475644350052,-0.12581239640712738,0.6586912274360657
0a3c40ce-4131-4352-9066-f6b964e3d0c9,30632152-b5d2-4dc6-96d7-e946b090a7b6,1760436086202060985,-1.455307,1.646042,1.138687,0.023926,-0.370605,0.949219,-0.06479107240675834,-21.559496309723162,84.12782120820319,0.7292262315750122,-0.13848160207271576,-0.12571753561496735,0.6582150459289551
0a3c40ce-4131-4352-9066-f6b964e3d0c9,30632152-b5d2-4dc6-96d7-e946b090a7b6,1760436086210072985,-1.214981,2.134323,0.833511,-0.001953,-0.378906,0.962891,-0.04436088107977038,-21.571581124710153,84.07107853091514,0.7295597791671753,-0.13873808085918427,-0.12558823823928833,0.6578159332275391
0a3c40ce-4131-4352-9066-f6b964e3d0c9,30632152-b5d2-4dc6-96d7-e946b090a7b6,1760436086218084985,-1.276016,2.500534,0.162125,-0.000977,-0.389648,0.950684,-0.0253740533437966,-21.58572052112028,84.04954883388783,0.729686975479126,-0.13896068930625916,-0.1255224049091339,0.6576403975486755
0a3c40ce-4131-4352-9066-f6b964e3d0c9,30632152-b5d2-4dc6-96d7-e946b090a7b6,1760436086228848985,-1.579285,2.380371,-0.204086,0.01123,-0.380371,0.949219,-0.007457964491413932,-21.599201484983904,84.01268506607332,0.7299017310142517,-0.1391897052526474,-0.12544091045856476,0.6573691964149475
0a3c40ce-4131-4352-9066-f6b964e3d0c9,30632152-b5d2-4dc6-96d7-e946b090a7b6,1760436086239612985,-1.335144,3.051758,-0.452042,0.001953,-0.375,0.945312,0.01602333767539561,-21.610045531095896,83.96871188618105,0.7301664352416992,-0.139441579580307,-0.12530004978179932,0.6570485830307007
0a3c40ce-4131-4352-9066-f6b964e3d0c9,30632152-b5d2-4dc6-96d7-e946b090a7b6,1760436086250376985,-1.455307,3.110886,-1.058578,0.002441,-0.384766,0.959961,0.03834155242251579,-21.62062037655566,83.91518857980769,0.7304847836494446,-0.13969537615776062,-0.12515324354171753,0.6566687822341919
0a3c40ce-4131-4352-9066-f6b964e3d0c9,30632152-b5d2-4dc6-96d7-e946b090a7b6,1760436086260910985,-1.152039,3.051758,-0.997543,0.002441,-0.38916,0.962402,0.06322970249267547,-21.631281522933445,83.88053911628401,0.730697512626648,-0.13994376361370087,-0.12501338124275208,0.6564057469367981
0a3c40ce-4131-4352-9066-f6b964e3d0c9,30632152-b5d2-4dc6-96d7-e946b090a7b6,1760436086271446985,-0.724792,2.929688,-1.123428,-0.019531,-0.375977,0.949707,0.08665225784416188,-21.641299944057145,83.87172918390267,0.7307613492012024,-0.14015139639377594,-0.12491065263748169,0.656309962272644
0a3c40ce-4131-4352-9066-f6b964e3d0c9,30632152-b5d2-4dc6-96d7-e946b090a7b6,1760436086281982985,-0.724792,3.234863,-1.058578,-0.005859,-0.37793,0.942383,0.11721802618761468,-21.65351487853228,83.79222373058224,0.7312349677085876,-0.14049087464809418,-0.12468826770782471,0.6557518839836121
0a3c40ce-4131-4352-9066-f6b964e3d0c9,30632152-b5d2-4dc6-96d7-e946b090a7b6,1760436086290023985,-0.846863,2.868652,-0.997543,-0.01123,-0.382812,0.958496,0.1759604502834273,-21.67481185926986,83.77155077180792,0.7313912510871887,-0.14098529517650604,-0.12440990656614304,0.6555243134498596
0a3c40ce-4131-4352-9066-f6b964e3d0c9,30632152-b5d2-4dc6-96d7-e946b090a7b6,1760436086298062985,-0.7267,2.80571,-0.940323,-0.018555,-0.389648,0.966797,0.20717844921305256,-21.68330300477274,83.71681560975051,0.7317278385162354,-0.14127737283706665,-0.12419179081916809,0.6551270484924316
0a3c40ce-4131-4352-9066-f6b964e3d0c9,30632152-b5d2-4dc6-96d7-e946b090a7b6,1760436086306101985,-0.724792,2.258301,-0.509262,-0.016602,-0.388672,0.950195,0.23354493221548853,-21.69197869758296,83.64959313495771,0.7321300506591797,-0.14155623316764832,-0.12399004399776459,0.6546555161476135
0a3c40ce-4131-4352-9066-f6b964e3d0c9,30632152-b5d2-4dc6-96d7-e946b090a7b6,1760436086314140985,-0.173569,2.134323,-0.509262,-0.010742,-0.383301,0.967285,0.2536492692214227,-21.692499553434875,83.57491493237947,0.7325776219367981,-0.1417551040649414,-0.12377221882343292,0.6541528105735779
0a3c40ce-4131-4352-9066-f6b964e3d0c9,30632152-b5d2-4dc6-96d7-e946b090a7b6,1760436086324780985,0.495911,1.89209,-0.146866,-0.02832,-0.395508,0.953125,0.28099335612205667,-21.69741818401199,83.52619471414717,0.7328792214393616,-0.1419951617717743,-0.12356515228748322,0.6538019776344299
0a3c40ce-4131-4352-9066-f6b964e3d0c9,30632152-b5d2-4dc6-96d7-e946b090a7b6,1760436086335420985,0.25177,1.708984,-0.082016,-0.024902,-0.385742,0.953125,0.30845489234106893,-21.694584260199374,83.50754463404508,0.7330186367034912,-0.142153799533844,-0.12335019558668137,0.6536518335342407
0a3c40ce-4131-4352-9066-f6b964e3d0c9,30632152-b5d2-4dc6-96d7-e946b090a7b6,1760436086346060985,0.371933,1.523972,0.162125,-0.021484,-0.381836,0.952148,0.3277894102538577,-21.691851085685876,83.46545983608428,0.733282744884491,-0.142291858792305,-0.12315865606069565,0.6533616185188293
0a3c40ce-4131-4352-9066-f6b964e3d0c9,30632152-b5d2-4dc6-96d7-e946b090a7b6,1760436086356734985,0.617981,1.708984,0.589371,-0.019531,-0.388184,0.962402,0.3510389085163731,-21.689424862112848,83.43849508311754,0.7334643602371216,-0.1424378603696823,-0.12296251207590103,0.6531627774238586
0a3c40ce-4131-4352-9066-f6b964e3d0c9,30632152-b5d2-4dc6-96d7-e946b090a7b6,1760436086367406985,0.37384,1.586914,0.707626,-0.029297,-0.367188,0.952148,0.37452790200951325,-21.686940296312656,83.43364229714629,0.7335202097892761,-0.14256104826927185,-0.12279194593429565,0.6531053185462952
0a3c40ce-4131-4352-9066-f6b964e3d0c9,30632152-b5d2-4dc6-96d7-e946b090a7b6,1760436086378078985,0.371933,1.466751,1.012802,-0.016602,-0.378418,0.953125,0.3995053785593128,-21.683380325210823,83.39524983237696,0.7337700128555298,-0.14272171258926392,-0.1225639283657074,0.6528323888778687
0a3c40ce-4131-4352-9066-f6b964e3d0c9,30632152-b5d2-4dc6-96d7-e946b090a7b6,1760436086386091985,0.066757,1.218796,1.321793,-0.016602,-0.380859,0.945312,0.4410741027252597,-21.680574307983772,83.38531743035394,0.7338743805885315,-0.14295117557048798,-0.12226933985948563,0.6527200937271118
0a3c40ce-4131-4352-9066-f6b964e3d0c9,30632152-b5d2-4dc6-96d7-e946b090a7b6,1760436086394102985,-0.175476,1.098633,1.501083,-0.012695,-0.375977,0.956055,0.4582981360865608,-21.680873683438897,83.37637174552147,0.7339433431625366,-0.14306072890758514,-0.12214957177639008,0.6526409983634949
0a3c40ce-4131-4352-9066-f6b964e3d0c9,30632152-b5d2-4dc6-96d7-e946b090a7b6,1760436086402113985,-0.480652,0.915527,1.260757,-0.01709,-0.376953,0.953613,0.47443065864720635,-21.68416134375528,83.33580944585,0.7341875433921814,-0.1432168334722519,-0.12201431393623352,0.6523573398590088
0a3c40ce-4131-4352-9066-f6b964e3d0c9,30632152-b5d2-4dc6-96d7-e946b090a7b6,1760436086410124985,-0.787735,1.03569,1.321793,-0.022949,-0.375977,0.95459,0.4958597607406871,-21.6890332224898,83.2952530586739,0.7344353199005127,-0.14341312646865845,-0.12185405194759369,0.6520652174949646
0a3c40ce-4131-4352-9066-f6b964e3d0c9,30632152-b5d2-4dc6-96d7-e946b090a7b6,1760436086420771985,-0.724792,1.098633,1.382828,-0.01709,-0.373535,0.950684,0.5178476556952045,-21.69249162213523,83.27151679932965,0.7345895767211914,-0.14358559250831604,-0.12170310318470001,0.6518816351890564
0a3c40ce-4131-4352-9066-f6b964e3d0c9,30632152-b5d2-4dc6-96d7-e946b090a7b6,1760436086431418985,-0.724792,1.037598,1.501083,-0.020996,-0.382812,0.956055,0.5371035976584422,-21.700640435724488,83.2721221728639,0.7345967888832092,-0.14374664425849915,-0.12162686884403229,0.6518522500991821
0a3c40ce-4131-4352-9066-f6b964e3d0c9,30632152-b5d2-4dc6-96d7-e946b090a7b6,1760436086442065985,-0.480652,0.976562,1.382828,-0.016602,-0.375977,0.958496,0.5563314035322812,-21.704590607191275,83.23417971246398,0.7348282337188721,-0.14392152428627014,-0.12147847563028336,0.6515804529190063
0a3c40ce-4131-4352-9066-f6b964e3d0c9,30632152-b5d2-4dc6-96d7-e946b090a7b6,1760436086452811985,-0.60463,0.852585,1.195908,-0.026367,-0.382812,0.952637,0.5690204744867479,-21.71185410287434,83.22003999075393,0.7349133491516113,-0.14405517280101776,-0.121420718729496,0.6514655947685242
0a3c40ce-4131-4352-9066-f6b964e3d0c9,30632152-b5d2-4dc6-96d7-e946b090a7b6,1760436086463556985,-0.419617,0.305176,0.833511,-0.024414,-0.384277,0.948242,0.5781730557175596,-21.715383295667035,83.24408441688585,0.7347820997238159,-0.14410433173179626,-0.12141236662864685,0.6516042947769165
0a3c40ce-4131-4352-9066-f6b964e3d0c9,30632152-b5d2-4dc6-96d7-e946b090a7b6,1760436086474301985,-0.299454,0.425339,0.833511,-0.01709,-0.383789,0.953613,0.5840287707520919,-21.715431117473443,83.22655846544006,0.7348878979682922,-0.14415648579597473,-0.12135304510593414,0.6514845490455627
0a3c40ce-4131-4352-9066-f6b964e3d0c9,30632152-b5d2-4dc6-96d7-e946b090a7b6,1760436086484908985,-0.480652,-0.183105,0.772476,-0.025391,-0.382324,0.962891,0.5961655470856719,-21.715955889687166,83.16626631804446,0.7352427840232849,-0.14429263770580292,-0.12120229750871658,0.651081919670105
0a3c40ce-4131-4352-9066-f6b964e3d0c9,30632152-b5d2-4dc6-96d7-e946b090a7b6,1760436086495515985,-0.238419,-0.612259,0.833511,-0.027832,-0.374023,0.955078,0.6031320591267914,-21.71373946032914,83.16214555915654,0.7352762222290039,-0.14432238042354584,-0.12113978713750839,0.6510491967201233
0a3c40ce-4131-4352-9066-f6b964e3d0c9,30632152-b5d2-4dc6-96d7-e946b090a7b6,1760436086506122985,-0.173569,-0.490189,0.650406,-0.026855,-0.378418,0.945801,0.607019698651464,-21.715396531083982,83.11740789457792,0.7355324625968933,-0.14440235495567322,-0.12106791138648987,0.6507553458213806
0a3c40ce-4131-4352-9066-f6b964e3d0c9,30632152-b5d2-4dc6-96d7-e946b090a7b6,1760436086514110985,-0.724792,-0.671387,0.707626,-0.021973,-0.378906,0.949707,0.609346806106458,-21.715246717842493,83.0870728171329,0.7357073426246643,-0.14444665610790253,-0.12101388722658157,0.650557816028595
0a3c40ce-4131-4352-9066-f6b964e3d0c9,30632152-b5d2-4dc6-96d7-e946b090a7b6,1760436086522099985,-0.358582,-0.671387,1.012802,-0.023926,-0.390625,0.956543,0.6126475338121539,-21.71941455366594,83.06562655500356,0.7358275651931763,-0.1445147544145584,-0.1209893673658371,0.6504112482070923
0a3c40ce-4131-4352-9066-f6b964e3d0c9,30632152-b5d2-4dc6-96d7-e946b090a7b6,1760436086530088985,-0.543594,-0.97847,1.012802,-0.014648,-0.386719,0.943359,0.6112391334386074,-21.726964217704907,83.04960064016772,0.7359079718589783,-0.14457206428050995,-0.12102114409208298,0.6503016948699951
0a3c40ce-4131-4352-9066-f6b964e3d0c9,30632152-b5d2-4dc6-96d7-e946b090a7b6,1760436086538077985,-0.175476,-1.220703,1.138687,-0.00293,-0.38623,0.945801,0.609106616781945,-21.731381999466308,83.02434920381106,0.7360436916351318,-0.14461496472358704,-0.1210281029343605,0.650137186050415
0a3c40ce-4131-4352-9066-f6b964e3d0c9,30632152-b5d2-4dc6-96d7-e946b090a7b6,1760436086548746985,0.312805,-1.77002,1.195908,-0.02002,-0.381348,0.944336,0.6009265673695121,-21.732841373603215,82.98223998922766,0.7362721562385559,-0.14462240040302277,-0.12103580683469772,0.6498753428459167
0a3c40ce-4131-4352-9066-f6b964e3d0c9,30632152-b5d2-4dc6-96d7-e946b090a7b6,1760436086559415985,-0.175476,-1.831055,1.443863,-0.018066,-0.379883,0.940918,0.5944511757878581,-21.73462732531067,83.03591238787172,0.7359586954116821,-0.14454039931297302,-0.1211552768945694,0.6502262949943542
0a3c40ce-4131-4352-9066-f6b964e3d0c9,30632152-b5d2-4dc6-96d7-e946b090a7b6,1760436086570084985,-0.238419,-1.771927,1.626968,-0.006836,-0.384277,0.949219,0.5863062046739815,-21.73858351226608,83.06683851096497,0.7357698082923889,-0.14448682963848114,-0.12126908451318741,0.6504306793212891
0a3c40ce-4131-4352-9066-f6b964e3d0c9,30632152-b5d2-4dc6-96d7-e946b090a7b6,1760436086580735985,-0.116348,-1.646042,1.443863,-0.013184,-0.381836,0.945801,0.5627842963286595,-21.74561907452793,83.02703399233455,0.7359623312950134,-0.14444057643413544,-0.12140996754169464,0.65019690990448
0a3c40ce-4131-4352-9066-f6b964e3d0c9,30632152-b5d2-4dc6-96d7-e946b090a7b6,1760436086591388985,-0.60463,-1.283646,1.195908,-0.01123,-0.390625,0.956055,0.5513300482016185,-21.74967390585153,82.99519254443562,0.7361259460449219,-0.1444353461265564,-0.12146645784378052,0.6500022411346436
0a3c40ce-4131-4352-9066-f6b964e3d0c9,30632152-b5d2-4dc6-96d7-e946b090a7b6,1760436086602041985,-0.116348,-1.22261,1.382828,-0.010254,-0.391602,0.955566,0.5463544651706251,-21.756175435269085,82.94676990122359,0.7363874316215515,-0.14450016617774963,-0.12147432565689087,0.6496900916099548
0a3c40ce-4131-4352-9066-f6b964e3d0c9,30632152-b5d2-4dc6-96d7-e946b090a7b6,1760436086610046985,-0.299454,-1.157761,1.382828,-0.012207,-0.381348,0.959961,0.5395173421317987,-21.759875575452106,82.89859274536865,0.7366487979888916,-0.14453622698783875,-0.12147852778434753,0.6493849158287048
0a3c40ce-4131-4352-9066-f6b964e3d0c9,30632152-b5d2-4dc6-96d7-e946b090a7b6,1760436086618052985,-0.116348,-1.10054,1.684189,0.0,-0.379395,0.952148,0.5346064633193229,-21.76310154008171,82.85746166988189,0.7368727326393127,-0.14457271993160248,-0.12147653102874756,0.6491230130195618
0a3c40ce-4131-4352-9066-f6b964e3d0c9,30632152-b5d2-4dc6-96d7-e946b090a7b6,1760436086626058985,-0.358582,-1.098633,1.321793,0.003418,-0.384766,0.941894,0.5230462622993738,-21.770550681338765,82.83138684854809,0.7369991540908813,-0.14458271861076355,-0.12156025320291519,0.64896160364151
0a3c40ce-4131-4352-9066-f6b964e3d0c9,30632152-b5d2-4dc6-96d7-e946b090a7b6,1760436086634064985,-0.299454,-0.364304,1.077652,0.005859,-0.389648,0.953125,0.5204655984766631,-21.77680445302396,82.79476506804126,0.7371962070465088,-0.14464712142944336,-0.12156611680984497,0.6487222909927368
0a3c40ce-4131-4352-9066-f6b964e3d0c9,30632152-b5d2-4dc6-96d7-e946b090a7b6,1760436086644780985,-0.480652,-0.366211,1.260757,0.007812,-0.389648,0.932617,0.5154505648855237,-21.783706121114406,82.74779078333665,0.7374483942985535,-0.1447129100561142,-0.12157821655273438,0.648418664932251
0a3c40ce-4131-4352-9066-f6b964e3d0c9,30632152-b5d2-4dc6-96d7-e946b090a7b6,1760436086655496985,-0.480652,-0.183105,1.260757,-0.001465,-0.394531,0.94043,0.512120413038885,-21.791650783667684,82.7487820196633,0.7374296188354492,-0.14474406838417053,-0.12164594233036041,0.6484203338623047
0a3c40ce-4131-4352-9066-f6b964e3d0c9,30632152-b5d2-4dc6-96d7-e946b090a7b6,1760436086666212985,-1.092911,0.059128,1.077652,0.000977,-0.383301,0.938965,0.511168412301771,-21.803875256140486,82.73761908401505,0.7374769449234009,-0.14482907950878143,-0.12170726805925369,0.6483360528945923
0a3c40ce-4131-4352-9066-f6b964e3d0c9,30632152-b5d2-4dc6-96d7-e946b090a7b6,1760436086676837985,-1.764297,0.364304,0.833511,-0.01416,-0.395996,0.943359,0.5240475727163865,-21.841622506867793,82.66963618877747,0.7378292679786682,-0.14521676301956177,-0.12175223231315613,0.6478397846221924
0a3c40ce-4131-4352-9066-f6b964e3d0c9,30632152-b5d2-4dc6-96d7-e946b090a7b6,1760436086687461985,-1.823425,0.427246,0.833511,-0.013184,-0.384277,0.943359,0.5322370595498019,-21.862438064711256,82.63824747193232,0.7379900813102722,-0.14543023705482483,-0.12177758663892746,0.6476039290428162
0a3c40ce-4131-4352-9066-f6b964e3d0c9,30632152-b5d2-4dc6-96d7-e946b090a7b6,1760436086698085985,-1.88446,0.305176,1.077652,-0.020508,-0.38916,0.936035,0.5437612590570964,-21.883023725511407,82.60375442834747,0.738172173500061,-0.14566437900066376,-0.12177610397338867,0.6473440527915955
0a3c40ce-4131-4352-9066-f6b964e3d0c9,30632152-b5d2-4dc6-96d7-e946b090a7b6,1760436086706074985,-1.945496,0.061035,1.565933,-0.016602,-0.405273,0.949707,0.5550059605942019,-21.9078009344812,82.57545293088873,0.7383137941360474,-0.14591734111309052,-0.12180789560079575,0.6471195220947266
0a3c40ce-4131-4352-9066-f6b964e3d0c9,30632152-b5d2-4dc6-96d7-e946b090a7b6,1760436086714064985,-1.943588,-0.307083,1.565933,-0.019043,-0.388672,0.947266,0.5619906460249013,-21.931296887847306,82.55019068014055,0.7384352087974548,-0.14613479375839233,-0.12186364829540253,0.6469213366508484
0a3c40ce-4131-4352-9066-f6b964e3d0c9,30632152-b5d2-4dc6-96d7-e946b090a7b6,1760436086722054985,-1.76239,-1.037598,2.298355,-0.031738,-0.398926,0.946289,0.5700464136063909,-21.950931142293747,82.56488540195903,0.7383368611335754,-0.14629094302654266,-0.12194158136844635,0.6469836235046387
0a3c40ce-4131-4352-9066-f6b964e3d0c9,30632152-b5d2-4dc6-96d7-e946b090a7b6,1760436086730044985,-1.64032,-0.915527,2.603531,-0.021973,-0.382324,0.954102,0.581278413774857,-21.969601316730277,82.5638013252272,0.7383321523666382,-0.14647558331489563,-0.12197346985340118,0.6469413042068481
0a3c40ce-4131-4352-9066-f6b964e3d0c9,30632152-b5d2-4dc6-96d7-e946b090a7b6,1760436086740705985,-1.88446,-1.220703,2.965927,-0.005371,-0.397461,0.957031,0.5863506263612943,-21.984120615469962,82.53264026040523,0.7384957075119019,-0.14663079380989075,-0.12198307365179062,0.6467175483703613
0a3c40ce-4131-4352-9066-f6b964e3d0c9,30632152-b5d2-4dc6-96d7-e946b090a7b6,1760436086751366985,-1.51825,-0.854492,3.274918,-0.010254,-0.398438,0.951172,0.5896150898585892,-22.000724894729256,82.53029460146406,0.7384921312332153,-0.1467585265636444,-0.12205295264720917,0.6466795206069946
0a3c40ce-4131-4352-9066-f6b964e3d0c9,30632152-b5d2-4dc6-96d7-e946b090a7b6,1760436086762027985,-1.091003,-0.854492,3.149033,-0.005859,-0.388672,0.954102,0.5905076542675824,-22.015463555587544,82.56787349235044,0.738262951374054,-0.14681832492351532,-0.12217871844768524,0.6469038128852844
0a3c40ce-4131-4352-9066-f6b964e3d0c9,30632152-b5d2-4dc6-96d7-e946b090a7b6,1760436086772704985,-1.335144,-0.305176,3.149033,-0.010742,-0.398438,0.944336,0.6073345317719985,-22.043753620863022,82.54709546983194,0.7383635640144348,-0.14711740612983704,-0.12220370769500732,0.646716296672821
0a3c40ce-4131-4352-9066-f6b964e3d0c9,30632152-b5d2-4dc6-96d7-e946b090a7b6,1760436086783379985,-0.907898,-0.061035,2.843857,-0.005371,-0.398926,0.956055,0.6134763232441675,-22.05898996732187,82.52500767293198,0.7384760975837708,-0.14727362990379333,-0.122221939265728,0.6465487480163574
0a3c40ce-4131-4352-9066-f6b964e3d0c9,30632152-b5d2-4dc6-96d7-e946b090a7b6,1760436086794054985,-0.663757,0.244141,2.477646,-0.013184,-0.418945,0.95166,0.6221808718108751,-22.07515710714445,82.5330101290483,0.7384204268455505,-0.14741820096969604,-0.12226757407188416,0.6465707421302795
0a3c40ce-4131-4352-9066-f6b964e3d0c9,30632152-b5d2-4dc6-96d7-e946b090a7b6,1760436086804734985,-0.60463,-0.123978,2.17247,-0.000488,-0.404297,0.956055,0.6258524839452687,-22.085847926722412,82.5250444498385,0.7384561896324158,-0.1475161761045456,-0.12229412794113159,0.6465025544166565
0a3c40ce-4131-4352-9066-f6b964e3d0c9,30632152-b5d2-4dc6-96d7-e946b090a7b6,1760436086815417985,-0.299454,0.059128,1.684189,-0.012207,-0.407715,0.950684,0.6285537008868871,-22.097339172826707,82.48997242577404,0.7386428117752075,-0.14764277637004852,-0.1222965270280838,0.6462599039077759
0a3c40ce-4131-4352-9066-f6b964e3d0c9,30632152-b5d2-4dc6-96d7-e946b090a7b6,1760436086826100985,-0.480652,-0.183105,1.443863,-0.007812,-0.400879,0.955566,0.6318718850287092,-22.110355003609037,82.4931703050355,0.7386123538017273,-0.14774180948734283,-0.12235284596681595,0.64626145362854
0a3c40ce-4131-4352-9066-f6b964e3d0c9,30632152-b5d2-4dc6-96d7-e946b090a7b6,1760436086836735985,-0.60463,-0.307083,1.321793,-0.01416,-0.404297,0.95459,0.6371926541668557,-22.129875943473614,82.50441901985234,0.7385306358337402,-0.14788538217544556,-0.12244343012571335,0.6463048458099365
0a3c40ce-4131-4352-9066-f6b964e3d0c9,30632152-b5d2-4dc6-96d7-e946b090a7b6,1760436086847372985,-0.299454,-0.795364,1.443863,-0.013672,-0.402832,0.969727,0.6391898998988312,-22.134863175603183,82.48330238558852,0.7386457324028015,-0.14795129001140594,-0.12243149429559708,0.6461604833602905
0a3c40ce-4131-4352-9066-f6b964e3d0c9,30632152-b5d2-4dc6-96d7-e946b090a7b6,1760436086858009985,-0.116348,-0.669479,1.321793,-0.000488,-0.399414,0.954102,0.6394206122812844,-22.140423223232414,82.51834377577742,0.738441526889801,-0.1479509025812149,-0.12250668555498123,0.6463797092437744
0a3c40ce-4131-4352-9066-f6b964e3d0c9,30632152-b5d2-4dc6-96d7-e946b090a7b6,1760436086866028985,0.495911,-1.098633,1.443863,-0.016113,-0.387207,0.964844,0.6345983829713067,-22.138779879171786,82.4710288708484,0.7387052178382874,-0.1479637175798416,-0.12246738374233246,0.6460828185081482
0a3c40ce-4131-4352-9066-f6b964e3d0c9,30632152-b5d2-4dc6-96d7-e946b090a7b6,1760436086874048985,1.289368,-0.793457,1.382828,-0.010254,-0.397949,0.96582,0.6311540108355425,-22.132405339277923,82.41706429541907,0.7390135526657104,-0.14796093106269836,-0.12238389253616333,0.6457465887069702
0a3c40ce-4131-4352-9066-f6b964e3d0c9,30632152-b5d2-4dc6-96d7-e946b090a7b6,1760436086882068985,1.655579,-1.098633,1.443863,-0.012695,-0.398926,0.961914,0.6264422681368296,-22.12029584001285,82.37113182666874,0.7392821907997131,-0.14790545403957367,-0.1222865954041481,0.6454702019691467
0a3c40ce-4131-4352-9066-f6b964e3d0c9,30632152-b5d2-4dc6-96d7-e946b090a7b6,1760436086890088985,1.716614,-1.220703,1.626968,-0.01709,-0.39209,0.945312,0.6222809361989565,-22.106513073129594,82.3438984963102,0.739448070526123,-0.147822305560112,-0.12220048904418945,0.6453155279159546
0a3c40ce-4131-4352-9066-f6b964e3d0c9,30632152-b5d2-4dc6-96d7-e946b090a7b6,1760436086900756985,2.449036,-0.915527,1.749039,-0.010742,-0.383789,0.946289,0.620690415885635,-22.088948635273557,82.34028427299037,0.7394883036613464,-0.14770406484603882,-0.12210693955421448,0.6453142166137695
0a3c40ce-4131-4352-9066-f6b964e3d0c9,30632152-b5d2-4dc6-96d7-e946b090a7b6,1760436086911424985,2.508163,-1.157761,1.626968,0.002441,-0.394043,0.946777,0.6137749876364124,-22.066460754679255,82.30776064527386,0.7396916747093201,-0.1475548893213272,-0.12198274582624435,0.6451387405395508
0a3c40ce-4131-4352-9066-f6b964e3d0c9,30632152-b5d2-4dc6-96d7-e946b090a7b6,1760436086922092985,2.202988,-0.97847,1.626968,0.008301,-0.396973,0.959473,0.6091392008328989,-22.04625103712196,82.30264884689355,0.7397403120994568,-0.1474040150642395,-0.1218920424580574,0.6451345682144165
0a3c40ce-4131-4352-9066-f6b964e3d0c9,30632152-b5d2-4dc6-96d7-e946b090a7b6,1760436086930094985,2.996445,-0.246048,1.501083,-0.005859,-0.38916,0.970215,0.6010150084062019,-22.002714067335443,82.33079608601903,0.7396265268325806,-0.14704781770706177,-0.12173491716384888,0.6453759670257568
0a3c40ce-4131-4352-9066-f6b964e3d0c9,30632152-b5d2-4dc6-96d7-e946b090a7b6,1760436086938095985,3.242493,-0.183105,1.443863,0.005859,-0.391602,0.956055,0.5994175967921253,-21.97791019756945,82.31339249061683,0.7397531867027283,-0.14689747989177704,-0.12158289551734924,0.645293653011322
0a3c40ce-4131-4352-9066-f6b964e3d0c9,30632152-b5d2-4dc6-96d7-e946b090a7b6,1760436086946096985,2.813339,0.307083,0.894547,-0.01123,-0.380371,0.950195,0.6037049170669863,-21.95337651162223,82.29838637934986,0.7398722171783447,-0.14677941799163818,-0.12139751762151718,0.6452189683914185
0a3c40ce-4131-4352-9066-f6b964e3d0c9,30632152-b5d2-4dc6-96d7-e946b090a7b6,1760436086954097985,2.813339,0.181198,0.833511,-0.008301,-0.373047,0.94043,0.6054060640301052,-21.928772895117607,82.27311710875462,0.7400463223457336,-0.14665715396404266,-0.1212153360247612,0.6450813412666321
0a3c40ce-4131-4352-9066-f6b964e3d0c9,30632152-b5d2-4dc6-96d7-e946b090a7b6,1760436086964758985,2.449036,0.488281,0.341415,-0.011719,-0.380371,0.94873,0.6077613426086964,-21.908680695218354,82.2377999470026,0.7402721047401428,-0.14657819271087646,-0.12104158103466034,0.6448728442192078
0a3c40ce-4131-4352-9066-f6b964e3d0c9,30632152-b5d2-4dc6-96d7-e946b090a7b6,1760436086975419985,2.388,0.305176,0.162125,-0.012207,-0.391113,0.957519,0.6120042076926727,-21.88822742039247,82.19755887085834,0.7405279278755188,-0.14651262760162354,-0.12084735184907913,0.6446303725242615
0a3c40ce-4131-4352-9066-f6b964e3d0c9,30632152-b5d2-4dc6-96d7-e946b090a7b6,1760436086986080985,2.019882,0.547409,0.162125,-0.017578,-0.385254,0.942871,0.6173421072593187,-21.870367074629748,82.15988845020505,0.7407671809196472,-0.14646711945533752,-0.12066400051116943,0.6444001197814941
0a3c40ce-4131-4352-9066-f6b964e3d0c9,30632152-b5d2-4dc6-96d7-e946b090a7b6,1760436086996734985,1.960754,0.610352,-0.204086,-0.007812,-0.373535,0.935059,0.6226377660188549,-21.85435764506606,82.12603332203659,0.7409825921058655,-0.14642919600009918,-0.12049626559019089,0.6441924571990967
0a3c40ce-4131-4352-9066-f6b964e3d0c9,30632152-b5d2-4dc6-96d7-e946b090a7b6,1760436087007388985,1.411438,0.244141,-0.082016,-0.016602,-0.390625,0.938965,0.6257117026888326,-21.839404588115237,82.07585263042937,0.741286039352417,-0.14640267193317413,-0.12032802402973175,0.6438807249069214
0a3c40ce-4131-4352-9066-f6b964e3d0c9,30632152-b5d2-4dc6-96d7-e946b090a7b6,1760436087018042985,1.106262,0.244141,-0.326157,-0.029785,-0.384277,0.94043,0.6278480719832827,-21.84460742798446,82.044197994831,0.7414597868919373,-0.14648151397705078,-0.12030304968357086,0.6436673402786255
0a3c40ce-4131-4352-9066-f6b964e3d0c9,30632152-b5d2-4dc6-96d7-e946b090a7b6,1760436087028863985,0.680923,-0.307083,0.03624,-0.018066,-0.382324,0.942871,0.6346553138406299,-21.846984470385237,82.01028236046346,0.7416545152664185,-0.14657068252563477,-0.12022901326417923,0.6434365510940552
0a3c40ce-4131-4352-9066-f6b964e3d0c9,30632152-b5d2-4dc6-96d7-e946b090a7b6,1760436087039682985,0.801086,-0.549316,0.341415,-0.025879,-0.374512,0.929199,0.6405083068095097,-21.85031731121872,81.94366994287023,0.7420305013656616,-0.14669492840766907,-0.12012463808059692,0.6429941058158875
0a3c40ce-4131-4352-9066-f6b964e3d0c9,30632152-b5d2-4dc6-96d7-e946b090a7b6,1760436087050501985,0.801086,-0.549316,0.650406,-0.01709,-0.382812,0.95166,0.6408011043278339,-21.85140214212104,81.87922259886258,0.7423909902572632,-0.1467711329460144,-0.12004631757736206,0.6425750255584717
0a3c40ce-4131-4352-9066-f6b964e3d0c9,30632152-b5d2-4dc6-96d7-e946b090a7b6,1760436087058389985,0.801086,-0.366211,0.894547,-0.011719,-0.381348,0.936035,0.6419895653794305,-21.846761855907694,81.83156730710239,0.7426650524139404,-0.14679768681526184,-0.11995149403810501,0.6422699093818665
0a3c40ce-4131-4352-9066-f6b964e3d0c9,30632152-b5d2-4dc6-96d7-e946b090a7b6,1760436087066276985,0.801086,-0.244141,0.772476,-0.015137,-0.380371,0.935547,0.6424274473669791,-21.848286553301623,81.80619655769195,0.7428058385848999,-0.1468365490436554,-0.11992471665143967,0.6421032547950745
0a3c40ce-4131-4352-9066-f6b964e3d0c9,30632152-b5d2-4dc6-96d7-e946b090a7b6,1760436087074163985,0.495911,-0.244141,1.077652,-0.023926,-0.387207,0.943359,0.6427485211289672,-21.848519565393275,81.7864391891108,0.7429165840148926,-0.1468605399131775,-0.11989862471818924,0.6419744491577148
0a3c40ce-4131-4352-9066-f6b964e3d0c9,30632152-b5d2-4dc6-96d7-e946b090a7b6,1760436087082050985,0.555038,-0.307083,1.501083,-0.018555,-0.37793,0.94873,0.6470660937046826,-21.847201163809615,81.79150101498348,0.7428943514823914,-0.14687089622020721,-0.11986971646547318,0.6420032382011414
0a3c40ce-4131-4352-9066-f6b964e3d0c9,30632152-b5d2-4dc6-96d7-e946b090a7b6,1760436087092751985,0.312805,-0.305176,1.138687,-0.012695,-0.375,0.946777,0.6509036106038057,-21.843831095048746,81.81796900109468,0.7427541613578796,-0.14684291183948517,-0.11985982954502106,0.6421736478805542
0a3c40ce-4131-4352-9066-f6b964e3d0c9,30632152-b5d2-4dc6-96d7-e946b090a7b6,1760436087103452985,0.249863,-0.307083,1.321793,0.001465,-0.375,0.945801,0.65243412600308,-21.842437200653716,81.8174085402443,0.7427605986595154,-0.1468430608510971,-0.11984135955572128,0.6421695947647095
0a3c40ce-4131-4352-9066-f6b964e3d0c9,30632152-b5d2-4dc6-96d7-e946b090a7b6,1760436087114153985,-0.116348,-0.246048,1.382828,-0.011719,-0.378418,0.959473,0.6508114582542451,-21.8425890724596,81.77626412535393,0.7429892420768738,-0.1468779742717743,-0.11980000138282776,0.6419047713279724
0a3c40ce-4131-4352-9066-f6b964e3d0c9,30632152-b5d2-4dc6-96d7-e946b090a7b6,1760436087124787985,0.25177,0.12207,1.077652,-0.01123,-0.38623,0.959473,0.6516935426043429,-21.84493703660094,81.75086704913369,0.743129551410675,-0.14692465960979462,-0.11977490782737732,0.6417363286018372
0a3c40ce-4131-4352-9066-f6b964e3d0c9,30632152-b5d2-4dc6-96d7-e946b090a7b6,1760436087135421985,0.007629,-0.061035,0.833511,-0.008301,-0.383789,0.972168,0.650678362846804,-21.844830602321643,81.70392351754903,0.7433914542198181,-0.1469673365354538,-0.1197206974029541,0.6414332985877991
0a3c40ce-4131-4352-9066-f6b964e3d0c9,30632152-b5d2-4dc6-96d7-e946b090a7b6,1760436087146055985,0.127792,-0.490189,0.894547,-0.019531,-0.383789,0.953613,0.6507251465482868,-21.845522779758713,81.65172922281145,0.7436827421188354,-0.14702659845352173,-0.11965732276439667,0.6410937905311584
0a3c40ce-4131-4352-9066-f6b964e3d0c9,30632152-b5d2-4dc6-96d7-e946b090a7b6,1760436087156702985,0.190735,-0.366211,0.650406,-0.014648,-0.394043,0.954102,0.6498905038303664,-21.84652162921889,81.61639346790294,0.7438783049583435,-0.14706529676914215,-0.11962299793958664,0.640864372253418
0a3c40ce-4131-4352-9066-f6b964e3d0c9,30632152-b5d2-4dc6-96d7-e946b090a7b6,1760436087167351985,0.190735,0.12207,0.4673,-0.024414,-0.387207,0.949707,0.651890290642153,-21.84848194816868,81.60751397714604,0.7439276576042175,-0.14709845185279846,-0.11960960924625397,0.6408019661903381
0a3c40ce-4131-4352-9066-f6b964e3d0c9,30632152-b5d2-4dc6-96d7-e946b090a7b6,1760436087178000985,0.312805,-0.305176,0.707626,-0.018066,-0.382812,0.942871,0.6545630271187499,-21.85200288927718,81.57348256812996,0.7441164255142212,-0.1471717208623886,-0.11956829577684402,0.6405736804008484
0a3c40ce-4131-4352-9066-f6b964e3d0c9,30632152-b5d2-4dc6-96d7-e946b090a7b6,1760436087186014985,0.25177,0.061035,0.524521,-0.010254,-0.388672,0.955566,0.6590234583749844,-21.85701895288965,81.52251577833077,0.7443997859954834,-0.14728233218193054,-0.11950194835662842,0.6402313113212585
0a3c40ce-4131-4352-9066-f6b964e3d0c9,30632152-b5d2-4dc6-96d7-e946b090a7b6,1760436087194029985,-0.173569,-0.001907,0.524521,-0.016113,-0.384766,0.958008,0.6616514155898768,-21.857509385440256,81.53429179079922,0.7443361282348633,-0.14728792011737823,-0.11950276046991348,0.6403038501739502
0a3c40ce-4131-4352-9066-f6b964e3d0c9,30632152-b5d2-4dc6-96d7-e946b090a7b6,1760436087202044985,0.25177,-0.244141,0.707626,-0.006836,-0.374512,0.964355,0.660781836735423,-21.85596936356128,81.51417576406122,0.7444494962692261,-0.1472940444946289,-0.11947392672300339,0.6401760578155518
0a3c40ce-4131-4352-9066-f6b964e3d0c9,30632152-b5d2-4dc6-96d7-e946b090a7b6,1760436087210059985,-0.116348,-0.181198,0.4673,-0.010254,-0.371582,0.959961,0.6602263297889175,-21.852325625924532,81.53097696426661,0.7443594932556152,-0.14724980294704437,-0.11947871744632721,0.6402899622917175
0a3c40ce-4131-4352-9066-f6b964e3d0c9,30632152-b5d2-4dc6-96d7-e946b090a7b6,1760436087218050985,0.1297,-0.366211,0.772476,-0.006348,-0.385254,0.958008,0.6613682411759148,-21.855530930144884,81.53384975232099,0.744340717792511,-0.1472739726305008,-0.11949294805526733,0.6403035521507263
0a3c40ce-4131-4352-9066-f6b964e3d0c9,30632152-b5d2-4dc6-96d7-e946b090a7b6,1760436087226041985,0.190735,-0.183105,0.341415,-0.00293,-0.366699,0.949707,0.6606984297267557,-21.851105415841097,81.50833068313374,0.744488000869751,-0.1472681313753128,-0.11943971365690231,0.640143632888794
0a3c40ce-4131-4352-9066-f6b964e3d0c9,30632152-b5d2-4dc6-96d7-e946b090a7b6,1760436087234032985,0.249863,0.181198,0.589371,-0.006836,-0.387207,0.954102,0.6590984915522963,-21.854093464799227,81.4704969940381,0.7446939945220947,-0.1473180055618286,-0.11941821128129959,0.6398965120315552
0a3c40ce-4131-4352-9066-f6b964e3d0c9,30632152-b5d2-4dc6-96d7-e946b090a7b6,1760436087251622985,0.1297,0.305176,0.524521,0.00293,-0.385742,0.949707,0.6618537205535551,-21.85476982826222,81.41862116702768,0.7449856400489807,-0.14739182591438293,-0.11933737993240356,0.6395549774169922
0a3c40ce-4131-4352-9066-f6b964e3d0c9,30632152-b5d2-4dc6-96d7-e946b090a7b6,1760436087261224985,-0.116348,0.795364,0.589371,-0.008301,-0.39209,0.941406,0.6573204573386426,-21.856407437134752,81.38795831967721,0.7451500296592712,-0.1474090814590454,-0.1193365752696991,0.6393596529960632
0a3c40ce-4131-4352-9066-f6b964e3d0c9,30632152-b5d2-4dc6-96d7-e946b090a7b6,1760436087270826985,-0.358582,1.159668,0.284195,-0.013184,-0.394043,0.950195,0.6558908079092198,-21.85968101953149,81.35893785164424,0.7453064322471619,-0.14745257794857025,-0.11932684481143951,0.6391690969467163
0a3c40ce-4131-4352-9066-f6b964e3d0c9,30632152-b5d2-4dc6-96d7-e946b090a7b6,1760436087280428985,-0.480652,0.915527,0.284195,-0.012207,-0.368652,0.944824,0.6571845482589629,-21.86179673195313,81.32714306980004,0.7454825043678284,-0.14750663936138153,-0.1192893385887146,0.638958215713501
0a3c40ce-4131-4352-9066-f6b964e3d0c9,30632152-b5d2-4dc6-96d7-e946b090a7b6,1760436087290030985,-0.60463,1.466751,0.284195,-0.001953,-0.400879,0.947266,0.6631357244610505,-21.86453978695403,81.3468289963475,0.7453755736351013,-0.14753712713718414,-0.11929130554199219,0.6390756368637085
0a3c40ce-4131-4352-9066-f6b964e3d0c9,30632152-b5d2-4dc6-96d7-e946b090a7b6,1760436087299623985,-0.787735,0.91362,-0.509262,-0.01123,-0.381348,0.955078,0.671832191551539,-21.87805351779213,81.29108072887541,0.7456789016723633,-0.14773139357566833,-0.11923844367265701,0.6386865973472595
0a3c40ce-4131-4352-9066-f6b964e3d0c9,30632152-b5d2-4dc6-96d7-e946b090a7b6,1760436087309216985,-0.846863,0.671387,-0.326157,-0.012207,-0.38623,0.949219,0.6748471175159353,-21.881482384057293,81.24398513793815,0.7459402680397034,-0.14781945943832397,-0.11917724460363388,0.6383723616600037
0a3c40ce-4131-4352-9066-f6b964e3d0c9,30632152-b5d2-4dc6-96d7-e946b090a7b6,1760436087318809985,-0.543594,0.669479,-0.204086,-0.017578,-0.388184,0.956055,0.6775838323648554,-21.884253975314433,81.19949519448943,0.7461875081062317,-0.14789897203445435,-0.11911749839782715,0.6380760669708252
0a3c40ce-4131-4352-9066-f6b964e3d0c9,30632152-b5d2-4dc6-96d7-e946b090a7b6,1760436087328402985,-0.236511,0.610352,-0.204086,-0.02002,-0.385254,0.958008,0.6798177818251794,-21.887361778147984,81.16915561710346,0.7463549375534058,-0.14796313643455505,-0.11908113211393356,0.6378721594810486
0a3c40ce-4131-4352-9066-f6b964e3d0c9,30632152-b5d2-4dc6-96d7-e946b090a7b6,1760436087337995985,-0.053406,0.549316,-0.509262,-0.025391,-0.381836,0.963867,0.6859886060779079,-21.88773564464051,81.13216198853361,0.7465667724609375,-0.1480383425951004,-0.11899524182081223,0.6376227736473083
0a3c40ce-4131-4352-9066-f6b964e3d0c9,30632152-b5d2-4dc6-96d7-e946b090a7b6,1760436087347628985,0.066757,0.669479,-0.387192,-0.020508,-0.398438,0.962891,0.6891001015409248,-21.893797474440333,81.07980419953464,0.7468538284301758,-0.14814943075180054,-0.11894111335277557,0.6372708082199097
0a3c40ce-4131-4352-9066-f6b964e3d0c9,30632152-b5d2-4dc6-96d7-e946b090a7b6,1760436087357262985,0.371933,1.283646,-0.814438,-0.018066,-0.38623,0.972168,0.6981451507084874,-21.895992721625184,81.08829686017059,0.7468132972717285,-0.14820519089698792,-0.11890538781881332,0.6373120546340942
0a3c40ce-4131-4352-9066-f6b964e3d0c9,30632152-b5d2-4dc6-96d7-e946b090a7b6,1760436087366896985,0.495911,1.098633,-0.268936,-0.01416,-0.390137,0.940918,0.7061614678898865,-21.893136644969665,81.09200629631268,0.7468044757843018,-0.14822736382484436,-0.11884201318025589,0.6373289823532104
0a3c40ce-4131-4352-9066-f6b964e3d0c9,30632152-b5d2-4dc6-96d7-e946b090a7b6,1760436087376530985,1.045227,0.915527,-0.509262,-0.023437,-0.388184,0.950684,0.7138289200611291,-21.89221305802475,81.07745627096249,0.7468944787979126,-0.148279070854187,-0.11876806616783142,0.637225329875946
0a3c40ce-4131-4352-9066-f6b964e3d0c9,30632152-b5d2-4dc6-96d7-e946b090a7b6,1760436087386164985,0.37384,1.098633,-0.387192,-0.021973,-0.39502,0.943848,0.7211791742976262,-21.889056992530485,81.07485683350389,0.7469204068183899,-0.1483021229505539,-0.11869919300079346,0.6372023224830627
0a3c40ce-4131-4352-9066-f6b964e3d0c9,30632152-b5d2-4dc6-96d7-e946b090a7b6,1760436087395734985,0.371933,0.795364,-0.387192,-0.016602,-0.408203,0.956543,0.7326654352230297,-21.903749280809073,81.06182026742603,0.7469868063926697,-0.1484750509262085,-0.11868936568498611,0.6370860934257507
0a3c40ce-4131-4352-9066-f6b964e3d0c9,30632152-b5d2-4dc6-96d7-e946b090a7b6,1760436087405305985,-0.421524,0.364304,-0.326157,-0.021484,-0.400879,0.937988,0.7387586006752467,-21.911252639052062,81.02052089462983,0.7472134828567505,-0.1486005038022995,-0.11863793432712555,0.6368005275726318
0a3c40ce-4131-4352-9066-f6b964e3d0c9,30632152-b5d2-4dc6-96d7-e946b090a7b6,1760436087414876985,-0.358582,0.488281,-0.146866,-0.018555,-0.410645,0.942871,0.7421495303849501,-21.92174287249182,80.97460605986093,0.7474592328071594,-0.1487351357936859,-0.11861470341682434,0.6364849805831909
0a3c40ce-4131-4352-9066-f6b964e3d0c9,30632152-b5d2-4dc6-96d7-e946b090a7b6,1760436087424447985,-0.541687,0.366211,-0.635147,-0.030273,-0.405762,0.946289,0.7487975517703106,-21.929368893632898,80.94828380229906,0.7476029396057129,-0.14884895086288452,-0.11857963353395462,0.6362960338592529
0a3c40ce-4131-4352-9066-f6b964e3d0c9,30632152-b5d2-4dc6-96d7-e946b090a7b6,1760436087434018985,-0.299454,0.612259,-0.452042,-0.025879,-0.405273,0.961426,0.7545617538472174,-21.934030928428847,80.92195008101842,0.747749388217926,-0.14893855154514313,-0.11853376775979996,0.6361114978790283
0a3c40ce-4131-4352-9066-f6b964e3d0c9,30632152-b5d2-4dc6-96d7-e946b090a7b6,1760436087443620985,-0.358582,0.244141,-0.387192,-0.01709,-0.392578,0.95459,0.7587886253656806,-21.938550283061012,80.89205606373268,0.7479141354560852,-0.14902235567569733,-0.1184924766421318,0.6359058618545532
