section id,recording id,timestamp [ns],gyro x [deg/s],gyro y [deg/s],gyro z [deg/s],acceleration x [g],acceleration y [g],acceleration z [g],roll [deg],pitch [deg],yaw [deg],quaternion w,quaternion x,quaternion y,quaternion z
66c1f778-c986-4529-b453-5f14168643e8,e2ae4576-3aab-436c-b771-98b69ba8b275,1760441598986883537,-0.362396,0.278473,-0.593185,0.006836,-0.614258,0.838867,0.0937044570152739,-35.80499513987618,-156.15118660349327,0.1963707059621811,-0.06275364756584167,0.300925612449646,-0.9310979247093201
66c1f778-c986-4529-b453-5f14168643e8,e2ae4576-3aab-436c-b771-98b69ba8b275,1760441598995023537,-0.299454,0.03624,-0.654221,-0.009766,-0.612793,0.834473,0.0976712855428178,-35.80864115071832,-156.1398736677305,0.1964501589536667,-0.06275738775730133,0.3009558320045471,-0.9310711622238159
66c1f778-c986-4529-b453-5f14168643e8,e2ae4576-3aab-436c-b771-98b69ba8b275,1760441599003163537,0.005722,0.15831,-0.715256,0.000488,-0.602051,0.838867,0.09638005983316861,-35.8076280966972,-156.1364729094427,0.19648174941539764,-0.06277506798505783,0.300943523645401,-0.9310672879219055
66c1f778-c986-4529-b453-5f14168643e8,e2ae4576-3aab-436c-b771-98b69ba8b275,1760441599011303537,0.247955,0.339508,-0.53215,0.000977,-0.609863,0.833496,0.0915729424260093,-35.80612514028805,-156.13570335300338,0.1965014785528183,-0.06281357258558273,0.3009226620197296,-0.9310672283172607
66c1f778-c986-4529-b453-5f14168643e8,e2ae4576-3aab-436c-b771-98b69ba8b275,1760441599021766537,0.188828,-0.085831,-0.53215,-0.008789,-0.605469,0.834473,0.09293662727023307,-35.80653979965181,-156.14074980087156,0.1964566558599472,-0.06278994679450989,0.3009311258792877,-0.9310755729675293
66c1f778-c986-4529-b453-5f14168643e8,e2ae4576-3aab-436c-b771-98b69ba8b275,1760441599032229537,0.188828,0.341415,-0.471115,0.011719,-0.599609,0.835938,0.08960635393194055,-35.80550582928223,-156.1482263172939,0.19640523195266724,-0.06279559433460236,0.30092111229896545,-0.9310892820358276
66c1f778-c986-4529-b453-5f14168643e8,e2ae4576-3aab-436c-b771-98b69ba8b275,1760441599042692537,0.494003,0.15831,-0.226974,-0.015625,-0.602051,0.82959,0.0903336408246245,-35.807065710305366,-156.15115376413138,0.1963786631822586,-0.06278467923402786,0.30093663930892944,-0.9310905933380127
66c1f778-c986-4529-b453-5f14168643e8,e2ae4576-3aab-436c-b771-98b69ba8b275,1760441599050706537,0.614166,0.461578,-0.28801,-0.005859,-0.603027,0.836426,0.08845050188048333,-35.80603277100623,-156.1758518025747,0.19618350267410278,-0.06273334473371506,0.30093854665756226,-0.9311345815658569
66c1f778-c986-4529-b453-5f14168643e8,e2ae4576-3aab-436c-b771-98b69ba8b275,1760441599058720537,0.371933,0.463486,-0.471115,0.003906,-0.609375,0.833984,0.08881629846256502,-35.80683640232008,-156.2042956458929,0.1959509551525116,-0.06265704333782196,0.3009612560272217,-0.9311813712120056
66c1f778-c986-4529-b453-5f14168643e8,e2ae4576-3aab-436c-b771-98b69ba8b275,1760441599066734537,0.616074,0.585556,-0.165939,-0.000977,-0.598145,0.836914,0.09100869291609592,-35.806293310415214,-156.23523922187053,0.19569404423236847,-0.06255702674388885,0.300977498292923,-0.9312368631362915
66c1f778-c986-4529-b453-5f14168643e8,e2ae4576-3aab-436c-b771-98b69ba8b275,1760441599074748537,0.555038,0.646591,-0.043869,-0.025879,-0.606934,0.84082,0.09824789645494333,-35.808247039334255,-156.25552060149226,0.19550910592079163,-0.062448255717754364,0.30101677775382996,-0.9312703609466553
66c1f778-c986-4529-b453-5f14168643e8,e2ae4576-3aab-436c-b771-98b69ba8b275,1760441599085417537,0.860214,-0.146866,-0.043869,-0.006836,-0.597168,0.828125,0.1007546418735406,-35.80918290548593,-156.2774826747472,0.19532351195812225,-0.062371790409088135,0.3010406196117401,-0.9313067197799683
66c1f778-c986-4529-b453-5f14168643e8,e2ae4576-3aab-436c-b771-98b69ba8b275,1760441599096086537,0.616074,0.341415,0.322342,-0.007324,-0.602539,0.829102,0.10232766809024903,-35.80764836660224,-156.3253854865673,0.19493089616298676,-0.06223053112626076,0.3010568618774414,-0.9313932061195374
66c1f778-c986-4529-b453-5f14168643e8,e2ae4576-3aab-436c-b771-98b69ba8b275,1760441599106755537,0.555038,-0.146866,0.261307,0.001465,-0.606445,0.841309,0.10376482077008024,-35.80620489325032,-156.3725045785731,0.1945449262857437,-0.06209259480237961,0.3010731339454651,-0.9314778447151184
66c1f778-c986-4529-b453-5f14168643e8,e2ae4576-3aab-436c-b771-98b69ba8b275,1760441599117411537,0.492096,-0.209808,0.383377,0.000977,-0.61084,0.84668,0.10258508047474656,-35.80867834290911,-156.4152850961739,0.194198876619339,-0.06199397146701813,0.30111438035964966,-0.9315433502197266
66c1f778-c986-4529-b453-5f14168643e8,e2ae4576-3aab-436c-b771-98b69ba8b275,1760441599128067537,0.494003,-0.329971,0.078201,0.001953,-0.614258,0.835449,0.10270400822988349,-35.80949843484627,-156.44364948820458,0.1939675211906433,-0.061919860541820526,0.3011365830898285,-0.9315893054008484
66c1f778-c986-4529-b453-5f14168643e8,e2ae4576-3aab-436c-b771-98b69ba8b275,1760441599138723537,0.310898,-0.329971,0.261307,0.0,-0.598145,0.834961,0.10270654518218696,-35.81441761140657,-156.4789792944125,0.19367755949497223,-0.06183532997965813,0.3011956512928009,-0.9316361546516418
66c1f778-c986-4529-b453-5f14168643e8,e2ae4576-3aab-436c-b771-98b69ba8b275,1760441599149403537,0.677109,-0.268936,-0.226974,0.001465,-0.608887,0.843262,0.09813435166510412,-35.8183516186587,-156.56294531677216,0.19300469756126404,-0.061658427119255066,0.301265150308609,-0.931765079498291
66c1f778-c986-4529-b453-5f14168643e8,e2ae4576-3aab-436c-b771-98b69ba8b275,1760441599160083537,0.799179,-0.329971,-0.165939,0.01123,-0.611328,0.842285,0.09268453453518154,-35.81822610488094,-156.59769748358957,0.19273650646209717,-0.06161116063594818,0.3012736439704895,-0.9318209886550903
66c1f778-c986-4529-b453-5f14168643e8,e2ae4576-3aab-436c-b771-98b69ba8b275,1760441599170763537,0.494003,-0.452042,-0.349045,-0.006836,-0.606934,0.817383,0.09419483334520469,-35.81910242416335,-156.64880659323418,0.1923164278268814,-0.061465971171855927,0.3013107478618622,-0.9319053888320923
66c1f778-c986-4529-b453-5f14168643e8,e2ae4576-3aab-436c-b771-98b69ba8b275,1760441599178756537,0.494003,-0.513077,-0.28801,0.01123,-0.598145,0.835938,0.09894505420540427,-35.8171334550999,-156.701713186768,0.19187474250793457,-0.06128491461277008,0.3013310432434082,-0.9320017695426941
66c1f778-c986-4529-b453-5f14168643e8,e2ae4576-3aab-436c-b771-98b69ba8b275,1760441599186749537,0.432968,-0.574112,0.078201,0.005859,-0.602051,0.831543,0.09950335329885493,-35.81370048326127,-156.75867154144666,0.19141186773777008,-0.061124831438064575,0.3013344705104828,-0.9321063756942749
66c1f778-c986-4529-b453-5f14168643e8,e2ae4576-3aab-436c-b771-98b69ba8b275,1760441599194742537,0.555038,0.03624,0.078201,0.009277,-0.598633,0.82666,0.09704638342077887,-35.812816177209946,-156.8022806657398,0.19106407463550568,-0.06102865934371948,0.30134642124176025,-0.9321801662445068
66c1f778-c986-4529-b453-5f14168643e8,e2ae4576-3aab-436c-b771-98b69ba8b275,1760441599202735537,0.37384,-0.209808,0.017166,-0.008789,-0.585938,0.828613,0.09343612523376808,-35.81357900434787,-156.84371714833605,0.1907360553741455,-0.060950323939323425,0.3013686537742615,-0.9322453141212463
66c1f778-c986-4529-b453-5f14168643e8,e2ae4576-3aab-436c-b771-98b69ba8b275,1760441599210735537,0.555038,0.402451,-0.226974,0.006348,-0.595215,0.833008,0.09505432008031646,-35.8091102025427,-156.88076040255308,0.1904328614473343,-0.06083228811621666,0.30135467648506165,-0.9323195219039917
66c1f778-c986-4529-b453-5f14168643e8,e2ae4576-3aab-436c-b771-98b69ba8b275,1760441599218735537,0.188828,0.402451,-0.165939,0.00293,-0.595703,0.838379,0.09392876097588808,-35.80633720323134,-156.90316574796876,0.1902550309896469,-0.060777902603149414,0.3013421297073364,-0.9323634505271912
66c1f778-c986-4529-b453-5f14168643e8,e2ae4576-3aab-436c-b771-98b69ba8b275,1760441599226735537,0.188828,0.341415,0.017166,-0.003418,-0.602051,0.845703,0.09241480691794257,-35.80354380855506,-156.92364728808772,0.19009388983249664,-0.06073172390460968,0.30132776498794556,-0.9324039220809937
66c1f778-c986-4529-b453-5f14168643e8,e2ae4576-3aab-436c-b771-98b69ba8b275,1760441599234735537,0.188828,0.15831,-0.471115,-0.006348,-0.590332,0.837402,0.09182740620839305,-35.79892956741348,-156.987108080405,0.18958152830600739,-0.060561954975128174,0.3013228178024292,-0.9325209259986877
66c1f778-c986-4529-b453-5f14168643e8,e2ae4576-3aab-436c-b771-98b69ba8b275,1760441599245449537,0.127792,0.097275,-0.349045,0.001465,-0.588379,0.853516,0.0929360170640116,-35.79425609486672,-157.042924709408,0.1891268938779831,-0.06039842218160629,0.3013160824775696,-0.9326260089874268
66c1f778-c986-4529-b453-5f14168643e8,e2ae4576-3aab-436c-b771-98b69ba8b275,1760441599256163537,0.127792,0.524521,-0.226974,0.006836,-0.597168,0.831543,0.09116337872469518,-35.788099341850184,-157.08283985765794,0.18881000578403473,-0.06029772013425827,0.3012840747833252,-0.9327070713043213
66c1f778-c986-4529-b453-5f14168643e8,e2ae4576-3aab-436c-b771-98b69ba8b275,1760441599266877537,0.188828,0.341415,-0.28801,0.005371,-0.596191,0.847168,0.08707547387037376,-35.790134305570135,-157.14149762246566,0.18834218382835388,-0.06018010526895523,0.301324725151062,-0.9327961802482605
66c1f778-c986-4529-b453-5f14168643e8,e2ae4576-3aab-436c-b771-98b69ba8b275,1760441599277531537,0.555038,0.219345,-0.28801,0.003418,-0.591797,0.846191,0.08364299892991452,-35.78231488550495,-157.2709334768379,0.1873016357421875,-0.059854842722415924,0.3013232350349426,-0.9330270886421204
66c1f778-c986-4529-b453-5f14168643e8,e2ae4576-3aab-436c-b771-98b69ba8b275,1760441599288187537,0.247955,0.034332,-0.471115,-0.007812,-0.605957,0.857422,0.08376029179366694,-35.77672751038481,-157.3497086515286,0.18666285276412964,-0.059637606143951416,0.3013190031051636,-0.9331703782081604
66c1f778-c986-4529-b453-5f14168643e8,e2ae4576-3aab-436c-b771-98b69ba8b275,1760441599298843537,0.371933,-0.391006,-0.593185,-0.004395,-0.604492,0.838867,0.08402529582994193,-35.77557137428615,-157.43004812180894,0.186008483171463,-0.05942229926586151,0.30135175585746765,-0.9333041906356812
66c1f778-c986-4529-b453-5f14168643e8,e2ae4576-3aab-436c-b771-98b69ba8b275,1760441599309545537,0.677109,-0.085831,-0.53215,0.01123,-0.602539,0.851074,0.08650280420098122,-35.77423089827282,-157.51210920760005,0.18533426523208618,-0.05918411910533905,0.30138731002807617,-0.9334419965744019
66c1f778-c986-4529-b453-5f14168643e8,e2ae4576-3aab-436c-b771-98b69ba8b275,1760441599320249537,0.736237,-0.026703,-0.654221,0.010254,-0.597168,0.828125,0.08478883984409924,-35.769899018763105,-157.57911300938048,0.18479523062705994,-0.05901484936475754,0.3013838231563568,-0.9335606694221497
66c1f778-c986-4529-b453-5f14168643e8,e2ae4576-3aab-436c-b771-98b69ba8b275,1760441599330953537,0.431061,0.339508,-0.349045,0.0,-0.605469,0.832519,0.07853011092293619,-35.769401681879785,-157.62304155561986,0.1844540536403656,-0.05894949287176132,0.3013922870159149,-0.93362957239151
66c1f778-c986-4529-b453-5f14168643e8,e2ae4576-3aab-436c-b771-98b69ba8b275,1760441599341552537,0.371933,-0.085831,-0.28801,0.007324,-0.59375,0.828125,0.07472427007213463,-35.76495188671506,-157.7241489585174,0.18364255130290985,-0.05870740860700607,0.301401823759079,-0.9338017106056213
66c1f778-c986-4529-b453-5f14168643e8,e2ae4576-3aab-436c-b771-98b69ba8b275,1760441599352153537,0.068665,0.278473,-0.104904,0.003418,-0.59082,0.836914,0.07075523323465974,-35.76212484946167,-157.79971349267424,0.1830386519432068,-0.05853646621108055,0.30141109228134155,-0.9339280128479004
66c1f778-c986-4529-b453-5f14168643e8,e2ae4576-3aab-436c-b771-98b69ba8b275,1760441599362754537,0.247955,0.339508,0.078201,0.007813,-0.608398,0.841797,0.07047741142528745,-35.76188690293716,-157.86731339790273,0.18248853087425232,-0.05836053192615509,0.3014431893825531,-0.9340363144874573
66c1f778-c986-4529-b453-5f14168643e8,e2ae4576-3aab-436c-b771-98b69ba8b275,1760441599370773537,0.247955,0.522614,0.261307,-0.002441,-0.603027,0.844238,0.07266033328510069,-35.757791958766205,-157.93259025203608,0.1819528043270111,-0.05816449224948883,0.30144646763801575,-0.9341520071029663
66c1f778-c986-4529-b453-5f14168643e8,e2ae4576-3aab-436c-b771-98b69ba8b275,1760441599378793537,0.310898,0.707626,0.139236,0.008301,-0.609375,0.827637,0.07809946234986732,-35.756451431202386,-157.99283549828246,0.1814480423927307,-0.057959530502557755,0.3014746904373169,-0.9342538118362427
66c1f778-c986-4529-b453-5f14168643e8,e2ae4576-3aab-436c-b771-98b69ba8b275,1760441599386813537,-0.240326,0.587463,0.078201,0.004883,-0.583984,0.835938,0.0780246586209521,-35.757381697360515,-158.03960037720077,0.18106646835803986,-0.057838570326566696,0.30150577425956726,-0.9343253374099731
66c1f778-c986-4529-b453-5f14168643e8,e2ae4576-3aab-436c-b771-98b69ba8b275,1760441599394833537,0.125885,0.644684,0.017166,0.003418,-0.597168,0.838379,0.07729456952778517,-35.754523909909956,-158.06326448225872,0.18087691068649292,-0.05777773633599281,0.30149325728416443,-0.9343698620796204
66c1f778-c986-4529-b453-5f14168643e8,e2ae4576-3aab-436c-b771-98b69ba8b275,1760441599405473537,-0.240326,0.587463,-0.165939,-0.005371,-0.589844,0.84375,0.07434619529476813,-35.75294375547094,-158.09332086748626,0.18064039945602417,-0.05772020295262337,0.3014908730983734,-0.9344199299812317
66c1f778-c986-4529-b453-5f14168643e8,e2ae4576-3aab-436c-b771-98b69ba8b275,1760441599416113537,-0.116348,0.707626,-0.226974,-0.01123,-0.608398,0.836426,0.07610736796035479,-35.74777102616819,-158.11172381080095,0.18048836290836334,-0.05764926224946976,0.30146074295043945,-0.934463381767273
66c1f778-c986-4529-b453-5f14168643e8,e2ae4576-3aab-436c-b771-98b69ba8b275,1760441599426753537,-0.116348,0.890732,-0.28801,-0.01416,-0.605957,0.833008,0.0779786807622531,-35.747251152927966,-158.11619418385183,0.18044725060462952,-0.05762141942977905,0.30146169662475586,-0.9344727396965027
66c1f778-c986-4529-b453-5f14168643e8,e2ae4576-3aab-436c-b771-98b69ba8b275,1760441599437406537,-0.238419,0.402451,-0.593185,-0.000488,-0.593262,0.828125,0.08273213054104163,-35.746953004085825,-158.19823464848645,0.17976582050323486,-0.05736633390188217,0.3015078902244568,-0.9346048831939697
66c1f778-c986-4529-b453-5f14168643e8,e2ae4576-3aab-436c-b771-98b69ba8b275,1760441599448062537,-0.421524,0.646591,-0.53215,0.001465,-0.614258,0.833496,0.08222416749547495,-35.74926304071287,-158.26056306406034,0.1792576014995575,-0.05721009522676468,0.30155709385871887,-0.9346961975097656
66c1f778-c986-4529-b453-5f14168643e8,e2ae4576-3aab-436c-b771-98b69ba8b275,1760441599458718537,-0.545502,0.339508,-0.654221,0.010742,-0.590332,0.836914,0.07768309982080675,-35.744241370041706,-158.32597799101742,0.17873850464820862,-0.057067133486270905,0.30154165625572205,-0.9348093271255493
66c1f778-c986-4529-b453-5f14168643e8,e2ae4576-3aab-436c-b771-98b69ba8b275,1760441599466736537,-0.545502,0.339508,-0.349045,-0.008789,-0.594727,0.840332,0.07839318379237806,-35.74294117774405,-158.386296120267,0.17824521660804749,-0.05690058693289757,0.3015621602535248,-0.9349070191383362
66c1f778-c986-4529-b453-5f14168643e8,e2ae4576-3aab-436c-b771-98b69ba8b275,1760441599474755537,-0.299454,0.097275,-0.593185,-0.008789,-0.597656,0.830566,0.0809010384231634,-35.74048715637339,-158.42300028867174,0.17794039845466614,-0.056779712438583374,0.3015642464160919,-0.9349717497825623
66c1f778-c986-4529-b453-5f14168643e8,e2ae4576-3aab-436c-b771-98b69ba8b275,1760441599482774537,-0.299454,0.03624,-0.41008,-0.009277,-0.609375,0.844727,0.0798690105537802,-35.73811160791886,-158.43379481470205,0.1778562366962433,-0.056756023317575455,0.3015486001968384,-0.9349942803382874
66c1f778-c986-4529-b453-5f14168643e8,e2ae4576-3aab-436c-b771-98b69ba8b275,1760441599490793537,-0.240326,0.034332,-0.593185,-0.013672,-0.606445,0.838379,0.08275806661107879,-35.73709370012336,-158.40619822481813,0.17807431519031525,-0.05680348351597786,0.3015311062335968,-0.9349555373191833
66c1f778-c986-4529-b453-5f14168643e8,e2ae4576-3aab-436c-b771-98b69ba8b275,1760441599501438537,-0.299454,0.28038,-0.165939,-0.012207,-0.604004,0.831055,0.08431671436326114,-35.73771054358045,-158.43681048171118,0.1778201311826706,-0.05671117454767227,0.30155372619628906,-0.9350022077560425
66c1f778-c986-4529-b453-5f14168643e8,e2ae4576-3aab-436c-b771-98b69ba8b275,1760441599512083537,-0.421524,0.03624,-0.28801,-0.007324,-0.608887,0.835938,0.08768929161891234,-35.735724015785514,-158.47398552309795,0.17750892043113708,-0.0565827339887619,0.3015611171722412,-0.9350667595863342
66c1f778-c986-4529-b453-5f14168643e8,e2ae4576-3aab-436c-b771-98b69ba8b275,1760441599522728537,-0.421524,-0.268936,-0.165939,-0.01416,-0.603027,0.84668,0.08817419132675439,-35.736116055352404,-158.4960557550546,0.17732734978199005,-0.056521303951740265,0.3015759587287903,-0.9351001381874084
66c1f778-c986-4529-b453-5f14168643e8,e2ae4576-3aab-436c-b771-98b69ba8b275,1760441599533407537,-0.60463,-0.391006,0.139236,-0.001465,-0.594727,0.84082,0.09364998366986389,-35.73315972422444,-158.549387678269,0.17687921226024628,-0.056331682950258255,0.3015865683555603,-0.9351930022239685
66c1f778-c986-4529-b453-5f14168643e8,e2ae4576-3aab-436c-b771-98b69ba8b275,1760441599544088537,-0.360489,-0.268936,0.322342,-0.000977,-0.595215,0.836914,0.0934426032034131,-35.7310017046374,-158.62120177241343,0.1762947291135788,-0.05614103376865387,0.30160388350486755,-0.9353092312812805
66c1f778-c986-4529-b453-5f14168643e8,e2ae4576-3aab-436c-b771-98b69ba8b275,1760441599554769537,-0.909805,-0.391006,0.078201,-0.008789,-0.583984,0.840332,0.09374492290006932,-35.72554921727938,-158.68072555201906,0.1758107990026474,-0.05597349628806114,0.3015889525413513,-0.9354152083396912
66c1f778-c986-4529-b453-5f14168643e8,e2ae4576-3aab-436c-b771-98b69ba8b275,1760441599565434537,-0.665665,-0.452042,0.505447,0.001953,-0.591797,0.834961,0.09679815969720702,-35.724583860205556,-158.7141296076236,0.1755305677652359,-0.05585917830467224,0.3016020655632019,-0.9354704022407532
66c1f778-c986-4529-b453-5f14168643e8,e2ae4576-3aab-436c-b771-98b69ba8b275,1760441599576100537,-0.665665,-0.268936,0.566483,0.001465,-0.601562,0.845215,0.09814118793608809,-35.72367712526045,-158.75623601467697,0.1751837283372879,-0.055735986679792404,0.30161720514297485,-0.9355379343032837
66c1f778-c986-4529-b453-5f14168643e8,e2ae4576-3aab-436c-b771-98b69ba8b275,1760441599586766537,-0.728607,-0.453949,-0.165939,0.001465,-0.603027,0.836426,0.09607193812772141,-35.7226543021339,-158.80141796933228,0.17482081055641174,-0.055632397532463074,0.30162766575813293,-0.9356085658073425
66c1f778-c986-4529-b453-5f14168643e8,e2ae4576-3aab-436c-b771-98b69ba8b275,1760441599597431537,-0.545502,-0.389099,-0.165939,-0.010742,-0.600586,0.835938,0.0953587282693839,-35.72261131902996,-158.81734918485157,0.17469263076782227,-0.05559621751308441,0.30163395404815674,-0.9356326460838318
66c1f778-c986-4529-b453-5f14168643e8,e2ae4576-3aab-436c-b771-98b69ba8b275,1760441599608097537,-0.84877,-0.268936,0.322342,-0.00293,-0.595215,0.837891,0.09774553722869603,-35.722256307470445,-158.87051382937926,0.17425242066383362,-0.05543623864650726,0.3016604483127594,-0.9357156753540039
66c1f778-c986-4529-b453-5f14168643e8,e2ae4576-3aab-436c-b771-98b69ba8b275,1760441599618763537,-0.60463,-0.329971,0.017166,-0.003906,-0.604492,0.838867,0.10141293498171983,-35.72386848797715,-158.91033451622883,0.1739167869091034,-0.0553039088845253,0.3016984164714813,-0.9357737302780151
66c1f778-c986-4529-b453-5f14168643e8,e2ae4576-3aab-436c-b771-98b69ba8b275,1760441599626764537,-0.419617,-0.209808,-0.226974,-0.001953,-0.603516,0.842773,0.10154026684525423,-35.72380036056274,-158.9473644620504,0.17361408472061157,-0.055205270648002625,0.3017159104347229,-0.9358301162719727
66c1f778-c986-4529-b453-5f14168643e8,e2ae4576-3aab-436c-b771-98b69ba8b275,1760441599634766537,-0.360489,-0.452042,-0.165939,0.00293,-0.60498,0.839355,0.10256887608855249,-35.72275799014389,-158.9794499425531,0.17334985733032227,-0.055110808461904526,0.3017244040966034,-0.9358819127082825
66c1f778-c986-4529-b453-5f14168643e8,e2ae4576-3aab-436c-b771-98b69ba8b275,1760441599642768537,-0.240326,-0.148773,-0.349045,-0.003906,-0.591309,0.840332,0.10059607199201245,-35.722429070846566,-159.01270200275502,0.17308363318443298,-0.05503886565566063,0.30173471570014954,-0.9359320998191833
66c1f778-c986-4529-b453-5f14168643e8,e2ae4576-3aab-436c-b771-98b69ba8b275,1760441599650770537,0.127792,0.03624,0.139236,0.008301,-0.601074,0.842285,0.10111577352302312,-35.72135984303158,-159.04440758303403,0.17282383143901825,-0.05494951829314232,0.30174198746681213,-0.9359830021858215
66c1f778-c986-4529-b453-5f14168643e8,e2ae4576-3aab-436c-b771-98b69ba8b275,1760441599661417537,-0.177383,0.097275,-0.226974,-0.010742,-0.601074,0.845703,0.09772645463301029,-35.723308601689936,-159.11388077577698,0.17226430773735046,-0.05479719489812851,0.30178606510162354,-0.9360808730125427
66c1f778-c986-4529-b453-5f14168643e8,e2ae4576-3aab-436c-b771-98b69ba8b275,1760441599672064537,0.188828,-0.207901,-0.226974,-0.00293,-0.598145,0.853516,0.10007629863077995,-35.72097902835455,-159.18771795206234,0.1716560572385788,-0.054580025374889374,0.3018057942390442,-0.9361989498138428
66c1f778-c986-4529-b453-5f14168643e8,e2ae4576-3aab-436c-b771-98b69ba8b275,1760441599682711537,-0.177383,-0.146866,-0.226974,0.002441,-0.601074,0.833496,0.09941982642556713,-35.71706981122701,-159.26792571546142,0.17100436985492706,-0.0543682798743248,0.30181100964546204,-0.9363288283348083
66c1f778-c986-4529-b453-5f14168643e8,e2ae4576-3aab-436c-b771-98b69ba8b275,1760441599693390537,0.188828,-0.146866,-0.226974,0.001465,-0.594727,0.839355,0.09983568614225928,-35.71634233468664,-159.2862326290523,0.17085404694080353,-0.054315581917762756,0.30181437730789185,-0.9363582134246826
66c1f778-c986-4529-b453-5f14168643e8,e2ae4576-3aab-436c-b771-98b69ba8b275,1760441599704069537,0.068665,-0.209808,-0.165939,0.001465,-0.597168,0.833984,0.10180123301432918,-35.71564766267615,-159.33009016806608,0.1704908162355423,-0.054182957857847214,0.301832377910614,-0.9364263415336609
66c1f778-c986-4529-b453-5f14168643e8,e2ae4576-3aab-436c-b771-98b69ba8b275,1760441599714748537,-0.299454,0.097275,-0.165939,-0.004395,-0.590332,0.82959,0.1011380229941601,-35.71552247607559,-159.37982802139774,0.17008616030216217,-0.054057180881500244,0.30185386538505554,-0.9365002512931824
66c1f778-c986-4529-b453-5f14168643e8,e2ae4576-3aab-436c-b771-98b69ba8b275,1760441599722746537,-0.114441,0.278473,-0.043869,-0.003906,-0.594238,0.830566,0.10372386878096805,-35.71273122235826,-159.42803226323028,0.16968673467636108,-0.05390491336584091,0.301857590675354,-0.9365803003311157
66c1f778-c986-4529-b453-5f14168643e8,e2ae4576-3aab-436c-b771-98b69ba8b275,1760441599730745537,-0.360489,0.097275,-0.043869,0.00293,-0.597656,0.835938,0.10213673026391877,-35.711919654131705,-159.49400846064657,0.16915205121040344,-0.05374288931488991,0.3018796145915985,-0.9366791844367981
66c1f778-c986-4529-b453-5f14168643e8,e2ae4576-3aab-436c-b771-98b69ba8b275,1760441599738744537,-0.177383,0.341415,-0.104904,0.008789,-0.611328,0.834473,0.09952416591932227,-35.71016007340599,-159.57046751404854,0.1685347557067871,-0.05356020852923393,0.30189716815948486,-0.9367952942848206
66c1f778-c986-4529-b453-5f14168643e8,e2ae4576-3aab-436c-b771-98b69ba8b275,1760441599754740537,-0.482559,0.219345,-0.53215,0.006348,-0.589355,0.835938,0.08917053983458376,-35.712334983361465,-159.70299088238875,0.16747750341892242,-0.053298886865377426,0.3019615709781647,-0.9369789958000183
66c1f778-c986-4529-b453-5f14168643e8,e2ae4576-3aab-436c-b771-98b69ba8b275,1760441599762736537,-0.545502,0.339508,-0.104904,0.008301,-0.60498,0.828125,0.08405774875744003,-35.71296348913916,-159.73666927163373,0.1672152876853943,-0.05325286090373993,0.301974892616272,-0.9370241761207581
66c1f778-c986-4529-b453-5f14168643e8,e2ae4576-3aab-436c-b771-98b69ba8b275,1760441599770732537,-0.240326,0.522614,-0.654221,0.006348,-0.598145,0.824707,0.07763270705600933,-35.71538458957615,-159.76598152137933,0.16699159145355225,-0.05323191359639168,0.3019993305206299,-0.9370561838150024
66c1f778-c986-4529-b453-5f14168643e8,e2ae4576-3aab-436c-b771-98b69ba8b275,1760441599778728537,-0.238419,0.219345,-0.28801,0.000488,-0.575684,0.837402,0.07680275494608807,-35.7088590964075,-159.76163779814087,0.1670321822166443,-0.05324038863182068,0.3019423484802246,-0.9370680451393127
66c1f778-c986-4529-b453-5f14168643e8,e2ae4576-3aab-436c-b771-98b69ba8b275,1760441599789407537,-0.602722,0.278473,-0.471115,-0.002441,-0.603516,0.839355,0.07646247822109577,-35.70617159715474,-159.75290239318926,0.1671057939529419,-0.05326226353645325,0.30191582441329956,-0.9370622038841248
66c1f778-c986-4529-b453-5f14168643e8,e2ae4576-3aab-436c-b771-98b69ba8b275,1760441599800086537,-0.60463,-0.024796,-0.654221,-0.000488,-0.597656,0.834961,0.07505426134432375,-35.70692308671683,-159.79421721005693,0.16677150130271912,-0.053166236728429794,0.3019394874572754,-0.937118411064148
66c1f778-c986-4529-b453-5f14168643e8,e2ae4576-3aab-436c-b771-98b69ba8b275,1760441599810765537,-0.60463,0.15831,-0.53215,-0.004883,-0.600586,0.839355,0.0763319911710656,-35.707225252970005,-159.84518790465984,0.1663510799407959,-0.053021855652332306,0.3019673228263855,-0.9371926784515381
66c1f778-c986-4529-b453-5f14168643e8,e2ae4576-3aab-436c-b771-98b69ba8b275,1760441599821439537,-0.299454,0.402451,-0.41008,-0.003906,-0.601562,0.830566,0.07682875360118804,-35.71064751539389,-159.90343395589943,0.16587170958518982,-0.05286920815706253,0.3020228445529938,-0.9372686743736267
66c1f778-c986-4529-b453-5f14168643e8,e2ae4576-3aab-436c-b771-98b69ba8b275,1760441599832114537,-0.484467,0.278473,-0.226974,-0.001465,-0.612793,0.832519,0.07702246314994278,-35.712328823195875,-159.9660467575314,0.16535821557044983,-0.05270497873425484,0.3020656406879425,-0.937355101108551
66c1f778-c986-4529-b453-5f14168643e8,e2ae4576-3aab-436c-b771-98b69ba8b275,1760441599842789537,-0.543594,0.402451,-0.41008,0.009277,-0.61084,0.837402,0.07663714078549012,-35.71504482377674,-160.01279431026018,0.16497552394866943,-0.05258879438042641,0.3021087348461151,-0.9374153017997742
66c1f778-c986-4529-b453-5f14168643e8,e2ae4576-3aab-436c-b771-98b69ba8b275,1760441599850787537,-0.177383,0.402451,-0.41008,-0.001953,-0.599609,0.835938,0.07654831075774639,-35.71494498109476,-160.03970422022854,0.1647556573152542,-0.05251842364668846,0.3021201193332672,-0.9374542832374573
66c1f778-c986-4529-b453-5f14168643e8,e2ae4576-3aab-436c-b771-98b69ba8b275,1760441599858785537,-0.240326,0.339508,-0.471115,0.001953,-0.612305,0.832031,0.07832008048424956,-35.71849541811503,-160.04074903311772,0.16474077105522156,-0.05250629037618637,0.30215218663215637,-0.9374472498893738
66c1f778-c986-4529-b453-5f14168643e8,e2ae4576-3aab-436c-b771-98b69ba8b275,1760441599866783537,0.247955,0.339508,-0.28801,-0.005859,-0.590332,0.831055,0.07747004100019249,-35.71671860768772,-160.07735016713752,0.16444440186023712,-0.052414167672395706,0.30215317010879517,-0.9375041723251343
66c1f778-c986-4529-b453-5f14168643e8,e2ae4576-3aab-436c-b771-98b69ba8b275,1760441599874781537,-0.177383,0.341415,-0.593185,-0.011719,-0.604492,0.832519,0.0801358986840591,-35.71683043292729,-160.1079176454766,0.1641872227191925,-0.05231190472841263,0.30217185616493225,-0.9375489950180054
66c1f778-c986-4529-b453-5f14168643e8,e2ae4576-3aab-436c-b771-98b69ba8b275,1760441599885480537,0.125885,0.278473,-0.104904,-0.007324,-0.593262,0.838379,0.07989895572645732,-35.71629206006851,-160.1282017664858,0.16402213275432587,-0.052259575575590134,0.3021763563156128,-0.9375793933868408
66c1f778-c986-4529-b453-5f14168643e8,e2ae4576-3aab-436c-b771-98b69ba8b275,1760441599896179537,0.127792,0.402451,-0.104904,-0.001465,-0.61084,0.843262,0.07627459241425678,-35.71761690676532,-160.17791780301664,0.16362428665161133,-0.052160024642944336,0.3022046685218811,-0.9376453161239624
66c1f778-c986-4529-b453-5f14168643e8,e2ae4576-3aab-436c-b771-98b69ba8b275,1760441599906878537,-0.238419,0.219345,-0.654221,-0.000488,-0.613281,0.832519,0.07826616605269658,-35.72110836798354,-160.22819085567676,0.1632060408592224,-0.052016131579875946,0.3022589385509491,-0.9377086758613586
66c1f778-c986-4529-b453-5f14168643e8,e2ae4576-3aab-436c-b771-98b69ba8b275,1760441599914840537,0.127792,0.341415,-0.165939,0.001465,-0.589355,0.84082,0.07878276308566326,-35.72364048429774,-160.27976696835427,0.1627814620733261,-0.05187948793172836,0.30230382084846497,-0.9377754330635071
66c1f778-c986-4529-b453-5f14168643e8,e2ae4576-3aab-436c-b771-98b69ba8b275,1760441599922803537,0.125885,0.278473,-0.41008,-0.00293,-0.601074,0.831543,0.07770929522156196,-35.72412993644869,-160.33350947007267,0.16234426200389862,-0.05174720659852028,0.3023306429386139,-0.937849760055542
66c1f778-c986-4529-b453-5f14168643e8,e2ae4576-3aab-436c-b771-98b69ba8b275,1760441599930766537,-0.299454,0.524521,-0.471115,-0.002441,-0.595215,0.843262,0.08155535800498226,-35.721988353827,-160.38449046277486,0.16191788017749786,-0.05157821998000145,0.30234161019325256,-0.9379290342330933
66c1f778-c986-4529-b453-5f14168643e8,e2ae4576-3aab-436c-b771-98b69ba8b275,1760441599938729537,-0.421524,0.15831,0.078201,-0.012695,-0.587402,0.833008,0.08356571057419385,-35.71963543069287,-160.42010774115897,0.16162215173244476,-0.05146448686718941,0.3023412525653839,-0.9379862546920776
66c1f778-c986-4529-b453-5f14168643e8,e2ae4576-3aab-436c-b771-98b69ba8b275,1760441599949416537,-0.362396,-0.514984,-0.104904,-0.002441,-0.602051,0.835938,0.08765103800632355,-35.7158372892337,-160.44305681715673,0.16142529249191284,-0.05136515200138092,0.3023262619972229,-0.9380303025245667
66c1f778-c986-4529-b453-5f14168643e8,e2ae4576-3aab-436c-b771-98b69ba8b275,1760441599960103537,0.127792,-0.391006,-0.043869,0.002441,-0.583496,0.833008,0.08291976129518701,-35.71648110494602,-160.45768413748152,0.16131773591041565,-0.05136619508266449,0.30233141779899597,-0.9380471110343933
66c1f778-c986-4529-b453-5f14168643e8,e2ae4576-3aab-436c-b771-98b69ba8b275,1760441599970790537,0.005722,-0.146866,-0.41008,0.001465,-0.602051,0.831055,0.0812720711295378,-35.71397143539924,-160.49902952495407,0.1609847992658615,-0.05126709118485451,0.30232712626457214,-0.9381109476089478
66c1f778-c986-4529-b453-5f14168643e8,e2ae4576-3aab-436c-b771-98b69ba8b275,1760441599981448537,-0.299454,-0.329971,-0.226974,-0.012207,-0.594238,0.82666,0.07846254070236207,-35.71377016586769,-160.53475077896388,0.16069988906383514,-0.05119559168815613,0.30233755707740784,-0.9381601810455322
66c1f778-c986-4529-b453-5f14168643e8,e2ae4576-3aab-436c-b771-98b69ba8b275,1760441599992106537,-0.667572,-0.69809,0.078201,0.000488,-0.604492,0.846191,0.08011119329025794,-35.712515435816236,-160.55346740839187,0.16054290533065796,-0.051130976527929306,0.30233800411224365,-0.9381902813911438
66c1f778-c986-4529-b453-5f14168643e8,e2ae4576-3aab-436c-b771-98b69ba8b275,1760441600002764537,-0.667572,-0.514984,-0.165939,-0.000977,-0.599121,0.831055,0.0829118171014129,-35.71206935461073,-160.5736263510167,0.16037045419216156,-0.05105401203036308,0.3023468554019928,-0.938222348690033
66c1f778-c986-4529-b453-5f14168643e8,e2ae4576-3aab-436c-b771-98b69ba8b275,1760441600010777537,-0.665665,0.03624,-0.226974,-0.004883,-0.599609,0.837402,0.0864322722282265,-35.71212426528339,-160.64029290402567,0.15981528162956238,-0.05084935948252678,0.30238187313079834,-0.9383168816566467
66c1f778-c986-4529-b453-5f14168643e8,e2ae4576-3aab-436c-b771-98b69ba8b275,1760441600018792537,-0.543594,0.097275,-0.165939,0.001953,-0.605957,0.841797,0.083801162187182,-35.71268530535758,-160.68943075271028,0.15941959619522095,-0.0507420189678669,0.30240458250045776,-0.9383826851844788
66c1f778-c986-4529-b453-5f14168643e8,e2ae4576-3aab-436c-b771-98b69ba8b275,1760441600026807537,-0.97084,0.097275,-0.104904,0.000977,-0.592773,0.835449,0.08732191520977499,-35.70852212827573,-160.73161329547216,0.15906675159931183,-0.05059606581926346,0.3023940324783325,-0.9384538531303406
66c1f778-c986-4529-b453-5f14168643e8,e2ae4576-3aab-436c-b771-98b69ba8b275,1760441600034822537,-0.97084,0.219345,-0.165939,-0.001953,-0.603516,0.841309,0.08741769905432399,-35.707626859645444,-160.78476244935675,0.15863162279129028,-0.050453782081604004,0.3024102747440338,-0.938529908657074
66c1f778-c986-4529-b453-5f14168643e8,e2ae4576-3aab-436c-b771-98b69ba8b275,1760441600045471537,-0.787735,0.03624,0.200272,0.007813,-0.599121,0.842285,0.08387448118347482,-35.706145726256345,-160.82490467178766,0.1583128571510315,-0.05037480965256691,0.30241090059280396,-0.9385877847671509
66c1f778-c986-4529-b453-5f14168643e8,e2ae4576-3aab-436c-b771-98b69ba8b275,1760441600056120537,-0.84877,-0.085831,0.261307,-0.01123,-0.62793,0.842285,0.08686044026983249,-35.71328939778961,-160.83774116206598,0.1581966131925583,-0.05032636970281601,0.30247917771339417,-0.9385879635810852
66c1f778-c986-4529-b453-5f14168643e8,e2ae4576-3aab-436c-b771-98b69ba8b275,1760441600066769537,-0.787735,0.097275,0.017166,0.000488,-0.60791,0.842773,0.08565752013234594,-35.714417897348795,-160.88291315167072,0.15782926976680756,-0.05021853372454643,0.30250656604766846,-0.9386467933654785
66c1f778-c986-4529-b453-5f14168643e8,e2ae4576-3aab-436c-b771-98b69ba8b275,1760441600077442537,-0.97084,0.097275,0.139236,0.004395,-0.616211,0.833008,0.0847270981925384,-35.71461940841631,-160.9318868880051,0.1574304699897766,-0.05009714886546135,0.30252838134765625,-0.9387131929397583
66c1f778-c986-4529-b453-5f14168643e8,e2ae4576-3aab-436c-b771-98b69ba8b275,1760441600088116537,-0.545502,0.339508,0.200272,-0.008789,-0.591797,0.82666,0.08211966583574677,-35.719292850624065,-160.97612006727863,0.15707290172576904,-0.05000815540552139,0.30258241295814514,-0.9387603998184204
66c1f778-c986-4529-b453-5f14168643e8,e2ae4576-3aab-436c-b771-98b69ba8b275,1760441600098790537,-0.177383,0.219345,0.383377,0.00293,-0.604492,0.837891,0.08447538172749652,-35.718715327474754,-161.0132336693728,0.15676288306713104,-0.04989005625247955,0.3025970757007599,-0.9388138055801392
66c1f778-c986-4529-b453-5f14168643e8,e2ae4576-3aab-436c-b771-98b69ba8b275,1760441600106781537,-0.482559,-0.085831,-0.226974,0.001953,-0.591309,0.833984,0.07719338496443377,-35.72057605066501,-161.0994725283902,0.15607471764087677,-0.0497245267033577,0.3026398718357086,-0.9389234185218811
66c1f778-c986-4529-b453-5f14168643e8,e2ae4576-3aab-436c-b771-98b69ba8b275,1760441600114773537,-0.299454,0.463486,-0.349045,-0.00293,-0.600098,0.830566,0.07828892492312904,-35.720696153106275,-161.1255311842363,0.15585824847221375,-0.04964688792824745,0.30265364050865173,-0.9389590620994568
66c1f778-c986-4529-b453-5f14168643e8,e2ae4576-3aab-436c-b771-98b69ba8b275,1760441600122765537,-0.360489,0.524521,-0.41008,0.002441,-0.599121,0.830078,0.07468525882644451,-35.723012951156974,-161.1202908218232,0.1559096723794937,-0.04969341307878494,0.30266544222831726,-0.9389442801475525
66c1f778-c986-4529-b453-5f14168643e8,e2ae4576-3aab-436c-b771-98b69ba8b275,1760441600130757537,-0.299454,0.219345,-0.53215,0.0,-0.597656,0.833984,0.07423897840201818,-35.725412471615265,-161.16599767893698,0.1555352658033371,-0.04957961291074753,0.3027043044567108,-0.9389998316764832
66c1f778-c986-4529-b453-5f14168643e8,e2ae4576-3aab-436c-b771-98b69ba8b275,1760441600141436537,-0.545502,0.644684,-0.41008,0.007324,-0.602539,0.830566,0.0714541103368539,-35.72747113026501,-161.22007011121937,0.15509860217571259,-0.04946237802505493,0.30274075269699097,-0.9390665292739868
66c1f778-c986-4529-b453-5f14168643e8,e2ae4576-3aab-436c-b771-98b69ba8b275,1760441600152115537,-0.482559,0.463486,-0.28801,-0.001465,-0.597656,0.837402,0.07089803357732866,-35.73038687542808,-161.20409951139555,0.15522965788841248,-0.049513086676597595,0.30275699496269226,-0.9390369653701782
66c1f778-c986-4529-b453-5f14168643e8,e2ae4576-3aab-436c-b771-98b69ba8b275,1760441600162794537,-0.360489,0.219345,-0.654221,-0.006836,-0.608398,0.846191,0.07229285683091405,-35.73081669584215,-161.20045929290265,0.15525561571121216,-0.0495118610560894,0.3027608394622803,-0.9390314817428589
66c1f778-c986-4529-b453-5f14168643e8,e2ae4576-3aab-436c-b771-98b69ba8b275,1760441600173455537,-0.055313,-0.085831,-0.165939,0.016113,-0.601074,0.835938,0.07043831818173717,-35.7335839947532,-161.2307113489591,0.155011385679245,-0.04945088177919388,0.30279406905174255,-0.9390643239021301
66c1f778-c986-4529-b453-5f14168643e8,e2ae4576-3aab-436c-b771-98b69ba8b275,1760441600184116537,-0.240326,0.099182,-0.28801,-0.008301,-0.616699,0.830078,0.06755865068307343,-35.73370686758592,-161.28156554567002,0.15460218489170074,-0.04934027045965195,0.3028131127357483,-0.9391314387321472
66c1f778-c986-4529-b453-5f14168643e8,e2ae4576-3aab-436c-b771-98b69ba8b275,1760441600194777537,-0.665665,0.03624,-0.28801,-0.010254,-0.608887,0.837891,0.07172366293882984,-35.738976141266406,-161.32376825898132,0.15424297749996185,-0.04920171573758125,0.30288004875183105,-0.9391762018203735
66c1f778-c986-4529-b453-5f14168643e8,e2ae4576-3aab-436c-b771-98b69ba8b275,1760441600205443537,-0.360489,0.341415,-0.226974,-0.005859,-0.602539,0.841309,0.07201427400843687,-35.73981017338497,-161.4314403082254,0.1533593088388443,-0.048915836960077286,0.30293336510658264,-0.9393186569213867
66c1f778-c986-4529-b453-5f14168643e8,e2ae4576-3aab-436c-b771-98b69ba8b275,1760441600216108537,-0.545502,0.278473,-0.349045,0.00293,-0.591309,0.832519,0.06937223757095627,-35.74349640890091,-161.5112712263556,0.15271027386188507,-0.04873137176036835,0.3029940724372864,-0.939414381980896
66c1f778-c986-4529-b453-5f14168643e8,e2ae4576-3aab-436c-b771-98b69ba8b275,1760441600226773537,-0.421524,0.219345,-0.349045,-0.015625,-0.602539,0.837891,0.07729979745199392,-35.747242138090776,-161.5133743051058,0.15267044305801392,-0.04866582900285721,0.30303624272346497,-0.9394106268882751
66c1f778-c986-4529-b453-5f14168643e8,e2ae4576-3aab-436c-b771-98b69ba8b275,1760441600234778537,-0.787735,-0.146866,-0.043869,-0.004395,-0.603027,0.842285,0.07644280429204339,-35.749200078579996,-161.5279589626295,0.1525522917509079,-0.04863689839839935,0.30305734276771545,-0.9394245147705078
66c1f778-c986-4529-b453-5f14168643e8,e2ae4576-3aab-436c-b771-98b69ba8b275,1760441600242783537,-0.667572,-0.026703,0.078201,-0.002441,-0.606934,0.834473,0.07884006733240435,-35.748455763095116,-161.56437464758358,0.15224772691726685,-0.04851993918418884,0.3030698597431183,-0.939475953578949
66c1f778-c986-4529-b453-5f14168643e8,e2ae4576-3aab-436c-b771-98b69ba8b275,1760441600250788537,-0.05722,-0.209808,0.200272,-0.008301,-0.599609,0.833496,0.07796527707224116,-35.75064866182987,-161.6090135813861,0.1518831104040146,-0.04841196537017822,0.30310556292533875,-0.9395290017127991
66c1f778-c986-4529-b453-5f14168643e8,e2ae4576-3aab-436c-b771-98b69ba8b275,1760441600258793537,-0.177383,0.097275,0.200272,-0.005371,-0.609375,0.839355,0.08335483979789947,-35.75393360948774,-161.6598076821463,0.1514509618282318,-0.048237770795822144,0.30316105484962463,-0.93958979845047
66c1f778-c986-4529-b453-5f14168643e8,e2ae4576-3aab-436c-b771-98b69ba8b275,1760441600269460537,0.005722,0.341415,0.139236,-0.021484,-0.608398,0.833008,0.08335375406509202,-35.75469537850867,-161.72687858737575,0.15090066194534302,-0.04806133359670639,0.3031954765319824,-0.9396762847900391
66c1f778-c986-4529-b453-5f14168643e8,e2ae4576-3aab-436c-b771-98b69ba8b275,1760441600280127537,-0.116348,-0.024796,0.078201,-0.000488,-0.601562,0.836426,0.08841740844092208,-35.755427970052004,-161.76180849643535,0.15060050785541534,-0.047928351908922195,0.30322277545928955,-0.9397224187850952
66c1f778-c986-4529-b453-5f14168643e8,e2ae4576-3aab-436c-b771-98b69ba8b275,1760441600290794537,-0.05722,-0.148773,0.078201,0.015137,-0.601562,0.839355,0.09072608771745419,-35.75398255326917,-161.79445707289977,0.15032728016376495,-0.047821126878261566,0.30322760343551636,-0.9397700428962708
66c1f778-c986-4529-b453-5f14168643e8,e2ae4576-3aab-436c-b771-98b69ba8b275,1760441600301473537,0.005722,-0.146866,0.078201,0.000977,-0.612305,0.835449,0.08441830384099537,-35.75664918834538,-161.89763682184636,0.14949658513069153,-0.0476032979786396,0.3032841682434082,-0.9398953914642334
66c1f778-c986-4529-b453-5f14168643e8,e2ae4576-3aab-436c-b771-98b69ba8b275,1760441600312153537,-0.240326,0.099182,-0.043869,-0.008301,-0.60498,0.838867,0.08910282790536178,-35.76001493006906,-161.93448562647362,0.14918050169944763,-0.04747173935174942,0.3033331632614136,-0.9399364590644836
66c1f778-c986-4529-b453-5f14168643e8,e2ae4576-3aab-436c-b771-98b69ba8b275,1760441600322833537,0.125885,-0.026703,0.139236,0.006836,-0.598145,0.841309,0.08423874751932528,-35.759011054604976,-161.93144076142812,0.14921878278255463,-0.04751838743686676,0.3033173382282257,-0.9399331212043762
66c1f778-c986-4529-b453-5f14168643e8,e2ae4576-3aab-436c-b771-98b69ba8b275,1760441600330801537,0.188828,-0.024796,-0.28801,0.009277,-0.599609,0.841309,0.08644139838068018,-35.75838524678111,-161.9416497854624,0.1491294801235199,-0.047472480684518814,0.3033193051815033,-0.9399489760398865
66c1f778-c986-4529-b453-5f14168643e8,e2ae4576-3aab-436c-b771-98b69ba8b275,1760441600338772537,0.188828,0.402451,-0.28801,-0.003906,-0.604004,0.830078,0.08225354191227878,-35.75746074720083,-161.98891185825764,0.14875327050685883,-0.04738052189350128,0.3033258318901062,-0.9400111436843872
66c1f778-c986-4529-b453-5f14168643e8,e2ae4576-3aab-436c-b771-98b69ba8b275,1760441600346743537,-0.240326,0.278473,-0.41008,0.010254,-0.606934,0.839355,0.08617474244996685,-35.757782196174745,-162.0347312010114,0.14836688339710236,-0.047227486968040466,0.3033524751663208,-0.9400712847709656
66c1f778-c986-4529-b453-5f14168643e8,e2ae4576-3aab-436c-b771-98b69ba8b275,1760441600354714537,-0.421524,0.219345,-0.349045,-0.007812,-0.599609,0.838379,0.08290448626562798,-35.75917891080035,-162.08498135767277,0.14796270430088043,-0.047123100608587265,0.30338039994239807,-0.9401311874389648
66c1f778-c986-4529-b453-5f14168643e8,e2ae4576-3aab-436c-b771-98b69ba8b275,1760441600365397537,-0.179291,0.461578,-0.593185,0.000977,-0.603516,0.837402,0.081729320965472,-35.76044531311575,-162.12200146592699,0.14766155183315277,-0.047036364674568176,0.30340448021888733,-0.9401751160621643
66c1f778-c986-4529-b453-5f14168643e8,e2ae4576-3aab-436c-b771-98b69ba8b275,1760441600376080537,-0.507355,0.69809,-0.555038,0.007324,-0.606445,0.839844,0.08331034034923636,-35.76006980173925,-162.15709500120127,0.1473695933818817,-0.046929992735385895,0.303417831659317,-0.940221905708313
66c1f778-c986-4529-b453-5f14168643e8,e2ae4576-3aab-436c-b771-98b69ba8b275,1760441600386763537,-0.324249,-0.034332,-0.799179,0.0,-0.592285,0.834961,0.08253677033350523,-35.76081670331194,-162.195309492905,0.14705777168273926,-0.046836115419864655,0.30343860387802124,-0.9402686953544617
66c1f778-c986-4529-b453-5f14168643e8,e2ae4576-3aab-436c-b771-98b69ba8b275,1760441600397413537,-0.627518,-0.09346,-0.677109,-0.008301,-0.594238,0.837891,0.08931009594575581,-35.756124572171956,-162.2620667133878,0.14649400115013123,-0.04659772664308548,0.3034359812736511,-0.9403694272041321
66c1f778-c986-4529-b453-5f14168643e8,e2ae4576-3aab-436c-b771-98b69ba8b275,1760441600408065537,-0.871658,-0.337601,-0.677109,-0.010742,-0.611816,0.835449,0.09381767977747917,-35.75783797130706,-162.35614670507232,0.14570926129817963,-0.04631378874182701,0.3034939467906952,-0.9404866099357605
66c1f778-c986-4529-b453-5f14168643e8,e2ae4576-3aab-436c-b771-98b69ba8b275,1760441600418717537,-0.688553,-0.459671,-0.432968,-0.002441,-0.597168,0.847168,0.09660283195944089,-35.757672476044824,-162.37689202900864,0.14553168416023254,-0.04623576998710632,0.30350449681282043,-0.9405145645141602
66c1f778-c986-4529-b453-5f14168643e8,e2ae4576-3aab-436c-b771-98b69ba8b275,1760441600426764537,-0.871658,-0.764847,-0.555038,-0.016113,-0.603516,0.829102,0.10144056448297016,-35.75692399991268,-162.38648761777804,0.14544042944908142,-0.0461696982383728,0.30350837111473083,-0.9405306577682495
66c1f778-c986-4529-b453-5f14168643e8,e2ae4576-3aab-436c-b771-98b69ba8b275,1760441600434809537,-0.566483,-0.947952,-0.066757,-0.01709,-0.61084,0.844238,0.10819833029967182,-35.75709916799281,-162.44187879413226,0.14496780931949615,-0.04596773907542229,0.3035406470298767,-0.9406030774116516
66c1f778-c986-4529-b453-5f14168643e8,e2ae4576-3aab-436c-b771-98b69ba8b275,1760441600442854537,-0.812531,-0.94986,-0.127792,-0.013184,-0.613281,0.848144,0.11007003978739344,-35.75763839211006,-162.48898493541253,0.14457595348358154,-0.04582827538251877,0.3035663068294525,-0.9406619071960449
66c1f778-c986-4529-b453-5f14168643e8,e2ae4576-3aab-436c-b771-98b69ba8b275,1760441600450899537,-0.566483,-0.886917,0.177383,0.006348,-0.615234,0.834473,0.11376229204680936,-35.76177273669128,-162.5103962476652,0.14438869059085846,-0.04574647545814514,0.30361345410346985,-0.9406794309616089
66c1f778-c986-4529-b453-5f14168643e8,e2ae4576-3aab-436c-b771-98b69ba8b275,1760441600461516537,-0.751495,-1.010895,-0.005722,-0.000977,-0.608887,0.840332,0.11197008394673943,-35.76439748900165,-162.55453193779485,0.14403003454208374,-0.04564756155014038,0.3036503493785858,-0.9407272934913635
66c1f778-c986-4529-b453-5f14168643e8,e2ae4576-3aab-436c-b771-98b69ba8b275,1760441600472133537,-0.383377,-0.825882,0.360489,-0.004395,-0.606445,0.839844,0.1133034268806172,-35.76506620673837,-162.60192441160706,0.14363715052604675,-0.045511871576309204,0.3036763668060303,-0.9407855272293091
66c1f778-c986-4529-b453-5f14168643e8,e2ae4576-3aab-436c-b771-98b69ba8b275,1760441600482750537,-0.686646,-0.339508,0.238419,-0.013184,-0.600586,0.833984,0.11475696820205611,-35.76581444458153,-162.65286462500188,0.14321476221084595,-0.04536587744951248,0.30370453000068665,-0.9408478736877441
66c1f778-c986-4529-b453-5f14168643e8,e2ae4576-3aab-436c-b771-98b69ba8b275,1760441600493398537,-0.200272,-0.276566,0.665665,0.004395,-0.617188,0.833008,0.11128271376129564,-35.768563902580574,-162.6617807481034,0.14314962923526764,-0.04537421837449074,0.30372628569602966,-0.9408503770828247
66c1f778-c986-4529-b453-5f14168643e8,e2ae4576-3aab-436c-b771-98b69ba8b275,1760441600504047537,-0.749588,0.02861,0.543594,0.006348,-0.608887,0.839355,0.10767513489445664,-35.76841439485837,-162.72739292102497,0.1426205337047577,-0.045229751616716385,0.3037465214729309,-0.9409310817718506
66c1f778-c986-4529-b453-5f14168643e8,e2ae4576-3aab-436c-b771-98b69ba8b275,1760441600514696537,-0.871658,0.02861,-0.005722,0.012695,-0.606934,0.82959,0.10593568925650192,-35.771731706742926,-162.78319253254196,0.14216558635234833,-0.04510024935007095,0.3037935793399811,-0.9409909844398499
66c1f778-c986-4529-b453-5f14168643e8,e2ae4576-3aab-436c-b771-98b69ba8b275,1760441600522711537,-1.054764,-0.276566,0.055313,-0.009277,-0.604004,0.82959,0.10862770255726839,-35.77326073607569,-162.81224169076947,0.14191928505897522,-0.04500303789973259,0.3038209080696106,-0.9410239458084106
66c1f778-c986-4529-b453-5f14168643e8,e2ae4576-3aab-436c-b771-98b69ba8b275,1760441600530728537,-0.812531,-0.156403,-0.005722,-0.005859,-0.602539,0.827637,0.11311714241480313,-35.77586028116079,-162.84692620758457,0.14162148535251617,-0.04487743228673935,0.3038614094257355,-0.9410617351531982
66c1f778-c986-4529-b453-5f14168643e8,e2ae4576-3aab-436c-b771-98b69ba8b275,1760441600538745537,-0.932693,-0.459671,0.299454,-0.007812,-0.60498,0.817383,0.11327916797903517,-35.77766710744463,-162.88312273818994,0.141323059797287,-0.0447823591530323,0.3038906157016754,-0.9411016702651978
66c1f778-c986-4529-b453-5f14168643e8,e2ae4576-3aab-436c-b771-98b69ba8b275,1760441600546762537,-1.176834,-0.642776,0.177383,0.005859,-0.604492,0.841797,0.1173498735880937,-35.780158895348336,-162.91421995129912,0.1410558521747589,-0.044669535011053085,0.3039282262325287,-0.9411349892616272
66c1f778-c986-4529-b453-5f14168643e8,e2ae4576-3aab-436c-b771-98b69ba8b275,1760441600557410537,-1.117706,-1.010895,-0.005722,-0.004395,-0.621094,0.845215,0.11618393879661068,-35.78520554307729,-162.9538227235184,0.14073163270950317,-0.04458029568195343,0.3039836585521698,-0.9411698579788208
66c1f778-c986-4529-b453-5f14168643e8,e2ae4576-3aab-436c-b771-98b69ba8b275,1760441600568058537,-1.300812,-1.132965,-0.127792,-0.007812,-0.61377,0.827148,0.10537683648021016,-35.800253847944305,-162.9975106495315,0.1403954029083252,-0.044571686536073685,0.3041110038757324,-0.9411792755126953
66c1f778-c986-4529-b453-5f14168643e8,e2ae4576-3aab-436c-b771-98b69ba8b275,1760441600578706537,-0.812531,-1.190186,-0.005722,-0.01123,-0.598633,0.837891,0.0923990851015186,-35.81434479160586,-163.0244713209094,0.14020273089408875,-0.04462403059005737,0.30422133207321167,-0.9411698579788208
66c1f778-c986-4529-b453-5f14168643e8,e2ae4576-3aab-436c-b771-98b69ba8b275,1760441600589391537,-0.688553,-0.947952,-0.005722,0.005371,-0.618652,0.831055,0.09606554817027006,-35.81996172574258,-162.98253232951035,0.1405351758003235,-0.04471217095851898,0.3042556047439575,-0.9411050081253052
66c1f778-c986-4529-b453-5f14168643e8,e2ae4576-3aab-436c-b771-98b69ba8b275,1760441600600078537,-0.629425,-1.316071,0.238419,-0.004395,-0.610352,0.830566,0.09383848780361799,-35.82674352137082,-163.02196458594653,0.14021450281143188,-0.04463408887386322,0.3043239414691925,-0.9411344528198242
66c1f778-c986-4529-b453-5f14168643e8,e2ae4576-3aab-436c-b771-98b69ba8b275,1760441600610765537,-0.141144,-1.010895,0.299454,0.003418,-0.597168,0.827148,0.09454447213113418,-35.825186176005076,-163.05152772070326,0.13997045159339905,-0.04454787075519562,0.3043235242366791,-0.9411749839782715
66c1f778-c986-4529-b453-5f14168643e8,e2ae4576-3aab-436c-b771-98b69ba8b275,1760441600618790537,0.106812,-1.010895,0.360489,0.008789,-0.608398,0.842773,0.09406549898712198,-35.8273316308404,-163.04943614710115,0.1399880349636078,-0.044559985399246216,0.304339736700058,-0.9411665797233582
66c1f778-c986-4529-b453-5f14168643e8,e2ae4576-3aab-436c-b771-98b69ba8b275,1760441600626814537,-0.324249,-1.132965,0.482559,0.0,-0.614746,0.842285,0.09111124581523408,-35.82824406425323,-163.1034644996307,0.13955175876617432,-0.04444187507033348,0.3043646216392517,-0.9412288665771484
66c1f778-c986-4529-b453-5f14168643e8,e2ae4576-3aab-436c-b771-98b69ba8b275,1760441600634838537,0.043869,-1.192093,0.299454,0.008789,-0.614746,0.839844,0.08842993507931296,-35.832539699358314,-163.16457817876542,0.13905517756938934,-0.04430680721998215,0.3044203221797943,-0.9412906765937805
66c1f778-c986-4529-b453-5f14168643e8,e2ae4576-3aab-436c-b771-98b69ba8b275,1760441600642862537,0.226974,-0.886917,0.482559,0.010742,-0.615234,0.838379,0.08669303541183501,-35.83494651893972,-163.19661059287384,0.13879570364952087,-0.04423890262842178,0.3044503629207611,-0.9413224458694458
66c1f778-c986-4529-b453-5f14168643e8,e2ae4576-3aab-436c-b771-98b69ba8b275,1760441600653517537,0.043869,-0.886917,0.482559,0.00293,-0.605957,0.834473,0.08236662318392127,-35.83728586837011,-163.22624190436025,0.1385628581047058,-0.04419855773448944,0.3044757843017578,-0.9413504004478455
66c1f778-c986-4529-b453-5f14168643e8,e2ae4576-3aab-436c-b771-98b69ba8b275,1760441600664172537,-0.078201,-1.008987,0.60463,0.007813,-0.608398,0.82959,0.07819919625063614,-35.83793412742234,-163.2553984383314,0.13833415508270264,-0.04415610805153847,0.30448731780052185,-0.9413822889328003
66c1f778-c986-4529-b453-5f14168643e8,e2ae4576-3aab-436c-b771-98b69ba8b275,1760441600674827537,0.226974,-0.886917,0.60463,0.0,-0.592773,0.835449,0.07197701961253355,-35.84091159050484,-163.28847225590388,0.13807779550552368,-0.044122934341430664,0.30451700091362,-0.9414119124412537
66c1f778-c986-4529-b453-5f14168643e8,e2ae4576-3aab-436c-b771-98b69ba8b275,1760441600685497537,0.104904,-1.253128,0.116348,-0.010742,-0.633789,0.835449,0.06850916770351546,-35.84558974993765,-163.29247244630184,0.138052299618721,-0.04414644464850426,0.3045527935028076,-0.9414029717445374
66c1f778-c986-4529-b453-5f14168643e8,e2ae4576-3aab-436c-b771-98b69ba8b275,1760441600696169537,0.226974,-1.070023,-0.005722,-0.004883,-0.608887,0.835938,0.06273387725320899,-35.847330639864666,-163.3475123197001,0.13761478662490845,-0.0440497100353241,0.30458134412765503,-0.9414622783660889
66c1f778-c986-4529-b453-5f14168643e8,e2ae4576-3aab-436c-b771-98b69ba8b275,1760441600706841537,0.041962,-0.827789,0.299454,-0.001953,-0.604004,0.841309,0.05974788476802679,-35.85031307741129,-163.40920814517852,0.13711465895175934,-0.043913833796978,0.3046259582042694,-0.9415271282196045
66c1f778-c986-4529-b453-5f14168643e8,e2ae4576-3aab-436c-b771-98b69ba8b275,1760441600717462537,-0.261307,-0.703812,-0.066757,-0.006836,-0.608887,0.830566,0.05653930557878353,-35.85586986409421,-163.42211964585795,0.13701492547988892,-0.043912529945373535,0.3046727180480957,-0.9415265917778015
66c1f778-c986-4529-b453-5f14168643e8,e2ae4576-3aab-436c-b771-98b69ba8b275,1760441600728085537,-0.078201,-0.947952,-0.127792,0.013184,-0.614746,0.835938,0.05778653230585229,-35.85777490707533,-163.44361589545306,0.1368342489004135,-0.04384741559624672,0.30469810962677,-0.9415476322174072
66c1f778-c986-4529-b453-5f14168643e8,e2ae4576-3aab-436c-b771-98b69ba8b275,1760441600738708537,-0.139236,-0.459671,-0.005722,-0.000977,-0.611328,0.839844,0.05315750897710824,-35.86087892021574,-163.4936831699781,0.13643395900726318,-0.04375602677464485,0.30473724007606506,-0.9415972828865051
66c1f778-c986-4529-b453-5f14168643e8,e2ae4576-3aab-436c-b771-98b69ba8b275,1760441600746719537,0.104904,-0.459671,0.055313,-0.009277,-0.609375,0.832519,0.05569563872423193,-35.86630999739223,-163.55867818690655,0.13589102029800415,-0.04356877878308296,0.30480965971946716,-0.94166100025177
66c1f778-c986-4529-b453-5f14168643e8,e2ae4576-3aab-436c-b771-98b69ba8b275,1760441600754733537,0.164032,-0.522614,0.116348,0.009277,-0.604492,0.828125,0.053707801052323464,-35.869439726410945,-163.55211081861896,0.1359490603208542,-0.04360630363225937,0.30483052134513855,-0.9416441321372986
66c1f778-c986-4529-b453-5f14168643e8,e2ae4576-3aab-436c-b771-98b69ba8b275,1760441600762747537,-0.017166,-0.09346,0.116348,-0.001953,-0.600098,0.84082,0.05092732702680363,-35.86551315562476,-163.57611472045699,0.13576072454452515,-0.043560635298490524,0.30480408668518066,-0.941681981086731
66c1f778-c986-4529-b453-5f14168643e8,e2ae4576-3aab-436c-b771-98b69ba8b275,1760441600770761537,0.349045,-0.21553,0.299454,0.006348,-0.603516,0.842773,0.046084377958271,-35.864801837365114,-163.60539366286744,0.13553327322006226,-0.043521713465452194,0.30480363965034485,-0.9417166709899902
66c1f778-c986-4529-b453-5f14168643e8,e2ae4576-3aab-436c-b771-98b69ba8b275,1760441600781482537,0.778198,-0.339508,0.177383,0.006836,-0.625,0.849609,0.044544847403187544,-35.867188559435554,-163.62440119616855,0.13538023829460144,-0.04348662868142128,0.3048286437988281,-0.9417322278022766
66c1f778-c986-4529-b453-5f14168643e8,e2ae4576-3aab-436c-b771-98b69ba8b275,1760441600792203537,1.203537,-0.459671,-0.066757,0.007813,-0.600586,0.836914,0.04262798019861129,-35.86463174575969,-163.65531528455904,0.13513226807117462,-0.04341713339090347,0.3048171103000641,-0.9417747259140015
66c1f778-c986-4529-b453-5f14168643e8,e2ae4576-3aab-436c-b771-98b69ba8b275,1760441600802924537,1.020432,-0.09346,-0.005722,0.005371,-0.597168,0.831543,0.03745685411280252,-35.86256075254738,-163.70652422167288,0.13472594320774078,-0.043320976197719574,0.3048133850097656,-0.9418385624885559
66c1f778-c986-4529-b453-5f14168643e8,e2ae4576-3aab-436c-b771-98b69ba8b275,1760441600813545537,0.715256,-0.09346,-0.310898,0.008789,-0.612793,0.822266,0.03245942557309531,-35.86157712389382,-163.7389746336561,0.13447289168834686,-0.04327457398176193,0.3048116862773895,-0.9418774247169495
66c1f778-c986-4529-b453-5f14168643e8,e2ae4576-3aab-436c-b771-98b69ba8b275,1760441600824166537,0.469208,-0.095367,-0.188828,0.020508,-0.598145,0.832031,0.026459799199177757,-35.86298843085319,-163.77107188922577,0.13422448933124542,-0.04324016720056534,0.30482837557792664,-0.9419090151786804
66c1f778-c986-4529-b453-5f14168643e8,e2ae4576-3aab-436c-b771-98b69ba8b275,1760441600834787537,0.53215,0.02861,-0.432968,0.013184,-0.591797,0.833008,0.020129316078411518,-35.863322231690475,-163.8055334376536,0.13395793735980988,-0.04320092499256134,0.3048367202281952,-0.9419460296630859
66c1f778-c986-4529-b453-5f14168643e8,e2ae4576-3aab-436c-b771-98b69ba8b275,1760441600845446537,-0.078201,0.333786,-0.371933,-0.000977,-0.586426,0.817871,0.020203465011929815,-35.86004463538554,-163.89971314768084,0.1331847757101059,-0.04294595494866371,0.30484527349472046,-0.9420645236968994
66c1f778-c986-4529-b453-5f14168643e8,e2ae4576-3aab-436c-b771-98b69ba8b275,1760441600856104537,-0.200272,0.333786,-0.432968,0.006348,-0.588379,0.816895,0.01808740922195966,-35.85964453107782,-163.92533280906457,0.13297992944717407,-0.04289472848176956,0.30484911799430847,-0.9420945644378662
66c1f778-c986-4529-b453-5f14168643e8,e2ae4576-3aab-436c-b771-98b69ba8b275,1760441600866762537,-0.383377,0.089645,-0.371933,0.000977,-0.601074,0.822266,0.01650014076646894,-35.85959661702548,-163.94841783104934,0.13279438018798828,-0.04284631088376045,0.3048555254936218,-0.9421208500862122
66c1f778-c986-4529-b453-5f14168643e8,e2ae4576-3aab-436c-b771-98b69ba8b275,1760441600877415537,-0.44632,-0.339508,-0.127792,-0.006348,-0.57959,0.831543,0.01389257856628793,-35.85862621394108,-163.97326679736372,0.13259738683700562,-0.04280052334070206,0.3048538267612457,-0.9421511888504028
66c1f778-c986-4529-b453-5f14168643e8,e2ae4576-3aab-436c-b771-98b69ba8b275,1760441600888067537,-0.566483,-0.154495,-0.494003,0.0,-0.596191,0.828613,0.01611883086035557,-35.854431018629604,-163.997701421161,0.13239213824272156,-0.042712364345788956,0.30483102798461914,-0.9421914219856262
66c1f778-c986-4529-b453-5f14168643e8,e2ae4576-3aab-436c-b771-98b69ba8b275,1760441600898719537,-0.932693,-0.154495,0.299454,0.001465,-0.593262,0.817871,0.018465431325916666,-35.85181178805975,-164.03461502418023,0.1320832520723343,-0.04259174317121506,0.30482569336891174,-0.9422426819801331
66c1f778-c986-4529-b453-5f14168643e8,e2ae4576-3aab-436c-b771-98b69ba8b275,1760441600906740537,-1.298904,-0.09346,0.60463,0.00293,-0.599609,0.833008,0.021388233562524523,-35.863005105853546,-164.1060974118598,0.1314835101366043,-0.04239040985703468,0.3049476146697998,-0.9422961473464966
66c1f778-c986-4529-b453-5f14168643e8,e2ae4576-3aab-436c-b771-98b69ba8b275,1760441600914762537,-1.787186,-0.21553,0.787735,-0.012695,-0.602051,0.824707,0.027664253370712714,-35.87962027919903,-164.114368720435,0.13139258325099945,-0.04233585670590401,0.30509448051452637,-0.9422637820243835
66c1f778-c986-4529-b453-5f14168643e8,e2ae4576-3aab-436c-b771-98b69ba8b275,1760441600922784537,-2.336502,-0.21553,0.787735,-0.004395,-0.614746,0.821777,0.03213072855932913,-35.90321146339432,-164.1379666862631,0.1311778426170349,-0.042263343930244446,0.30530229210853577,-0.9422296285629272
66c1f778-c986-4529-b453-5f14168643e8,e2ae4576-3aab-436c-b771-98b69ba8b275,1760441600930806537,-2.334595,-0.339508,1.092911,0.012695,-0.603516,0.833496,0.033480652180904735,-35.92461986096812,-164.1731094090587,0.1308773010969162,-0.042183101177215576,0.3054928183555603,-0.942213237285614
66c1f778-c986-4529-b453-5f14168643e8,e2ae4576-3aab-436c-b771-98b69ba8b275,1760441600941460537,-2.58255,0.148773,1.459122,-0.006836,-0.615723,0.841797,0.042174786535811255,-35.94879851399909,-164.21774692049036,0.13047806918621063,-0.04202017933130264,0.30571791529655457,-0.9422029256820679
66c1f778-c986-4529-b453-5f14168643e8,e2ae4576-3aab-436c-b771-98b69ba8b275,1760441600952114537,-2.214432,0.150681,1.581192,0.00293,-0.609375,0.837891,0.05055712462268571,-35.96856145461552,-164.19791266128658,0.13061140477657318,-0.04202675446867943,0.30588269233703613,-0.9421306252479553
66c1f778-c986-4529-b453-5f14168643e8,e2ae4576-3aab-436c-b771-98b69ba8b275,1760441600962768537,-2.336502,-0.09346,1.642227,0.001465,-0.624023,0.833008,0.05856553831272421,-35.993020251433926,-164.1980884765386,0.13057941198349,-0.04198837652802467,0.3060929477214813,-0.9420685172080994
66c1f778-c986-4529-b453-5f14168643e8,e2ae4576-3aab-436c-b771-98b69ba8b275,1760441600973423537,-1.848221,-0.21553,1.398087,-0.002441,-0.621094,0.834961,0.06349864452381188,-36.01234929852809,-164.2440941726552,0.13018077611923218,-0.04184694588184357,0.30627429485321045,-0.9420710206031799
66c1f778-c986-4529-b453-5f14168643e8,e2ae4576-3aab-436c-b771-98b69ba8b275,1760441600984079537,-1.667023,-0.213623,1.642227,0.007813,-0.614746,0.834961,0.06876783512252732,-36.032429978465686,-164.2332720625297,0.13024812936782837,-0.04185543954372406,0.30644139647483826,-0.9420070052146912
66c1f778-c986-4529-b453-5f14168643e8,e2ae4576-3aab-436c-b771-98b69ba8b275,1760441600994735537,-1.117706,-0.156403,1.459122,0.000488,-0.615723,0.824707,0.07204934281209882,-36.042476458202906,-164.21733123071533,0.13036662340164185,-0.04188255965709686,0.3065218925476074,-0.9419631958007812
66c1f778-c986-4529-b453-5f14168643e8,e2ae4576-3aab-436c-b771-98b69ba8b275,1760441601005412537,-0.566483,-0.703812,0.7267,0.001953,-0.613281,0.837402,0.0722868113377121,-36.05143188270293,-164.27993770598712,0.12984797358512878,-0.041723307222127914,0.3066186010837555,-0.9420104622840881
66c1f778-c986-4529-b453-5f14168643e8,e2ae4576-3aab-436c-b771-98b69ba8b275,1760441601016088537,-0.261307,-0.581741,0.7267,0.00293,-0.608398,0.827148,0.07028656635793612,-36.05193990374064,-164.33070851367805,0.12943576276302338,-0.041604477912187576,0.3066389858722687,-0.9420657753944397
66c1f778-c986-4529-b453-5f14168643e8,e2ae4576-3aab-436c-b771-98b69ba8b275,1760441601026764537,-0.019073,-0.701904,0.482559,-0.001953,-0.60791,0.828613,0.0660708146738544,-36.05439392641447,-164.3546678455091,0.12924915552139282,-0.04157779738306999,0.3066630959510803,-0.9420847296714783
66c1f778-c986-4529-b453-5f14168643e8,e2ae4576-3aab-436c-b771-98b69ba8b275,1760441601034760537,-0.44632,-0.522614,0.543594,-0.000488,-0.602539,0.822266,0.06111387268401779,-36.053354452990156,-164.37794938007772,0.1290713995695114,-0.041555069386959076,0.3066574037075043,-0.9421119689941406
66c1f778-c986-4529-b453-5f14168643e8,e2ae4576-3aab-436c-b771-98b69ba8b275,1760441601042757537,-0.141144,-0.522614,0.116348,0.003418,-0.61084,0.823242,0.05854829600503011,-36.05402537474041,-164.40341625894558,0.12886863946914673,-0.04150876775383949,0.3066692650318146,-0.9421378970146179
66c1f778-c986-4529-b453-5f14168643e8,e2ae4576-3aab-436c-b771-98b69ba8b275,1760441601050754537,-0.383377,-0.276566,0.116348,0.007324,-0.604492,0.830078,0.056524720843142896,-36.052183101168396,-164.39574986126607,0.128937765955925,-0.04154384136199951,0.3066490590572357,-0.9421334862709045
66c1f778-c986-4529-b453-5f14168643e8,e2ae4576-3aab-436c-b771-98b69ba8b275,1760441601058751537,-0.566483,-0.581741,-0.127792,-0.010742,-0.599121,0.821289,0.0555724712581549,-36.05465612028565,-164.38317390384546,0.12904278934001923,-0.04158811271190643,0.30666375160217285,-0.942112386226654
66c1f778-c986-4529-b453-5f14168643e8,e2ae4576-3aab-436c-b771-98b69ba8b275,1760441601069420537,-0.566483,-0.154495,-0.127792,0.004883,-0.606934,0.833984,0.05932436795195432,-36.05844016977504,-164.438759177945,0.12857434153556824,-0.04141276329755783,0.30671921372413635,-0.9421660900115967
66c1f778-c986-4529-b453-5f14168643e8,e2ae4576-3aab-436c-b771-98b69ba8b275,1760441601080089537,-0.507355,-0.213623,-0.616074,-0.009766,-0.601562,0.831543,0.055721990378299016,-36.05745743317357,-164.4977684582228,0.12809915840625763,-0.04128333181142807,0.30672839283943176,-0.9422335028648376
66c1f778-c986-4529-b453-5f14168643e8,e2ae4576-3aab-436c-b771-98b69ba8b275,1760441601090758537,-0.019073,-0.278473,-0.371933,-0.013184,-0.607422,0.832031,0.05763531602189874,-36.057280257640315,-164.53919300402177,0.12775348126888275,-0.04115651920437813,0.3067439794540405,-0.9422808885574341
66c1f778-c986-4529-b453-5f14168643e8,e2ae4576-3aab-436c-b771-98b69ba8b275,1760441601101434537,-0.444412,-0.642776,-0.432968,-0.007324,-0.606934,0.836914,0.06793036730232488,-36.05689757465153,-164.60841711391032,0.1271568089723587,-0.04088611900806427,0.30677706003189087,-0.9423626065254211
66c1f778-c986-4529-b453-5f14168643e8,e2ae4576-3aab-436c-b771-98b69ba8b275,1760441601112108537,-0.505447,-0.581741,-0.616074,-0.006348,-0.606934,0.830566,0.07277024838164449,-36.06029132687436,-164.6308638052291,0.12695801258087158,-0.04078999534249306,0.3068183362483978,-0.9423801302909851
66c1f778-c986-4529-b453-5f14168643e8,e2ae4576-3aab-436c-b771-98b69ba8b275,1760441601122782537,-0.322342,-1.070023,-0.127792,-0.009766,-0.603027,0.829102,0.07416123971148825,-36.05931294021687,-164.63433364443702,0.12692610919475555,-0.040768176317214966,0.3068130612373352,-0.9423871040344238
66c1f778-c986-4529-b453-5f14168643e8,e2ae4576-3aab-436c-b771-98b69ba8b275,1760441601130762537,-0.324249,-0.701904,-0.371933,0.005859,-0.60791,0.823242,0.0758069141846263,-36.0576627278186,-164.6349332445917,0.12691737711429596,-0.04075120389461517,0.30680152773857117,-0.9423927664756775
66c1f778-c986-4529-b453-5f14168643e8,e2ae4576-3aab-436c-b771-98b69ba8b275,1760441601138742537,-0.261307,-0.886917,-0.066757,-0.003906,-0.610352,0.823242,0.0735228236789003,-36.058481517992035,-164.68906509255024,0.12647800147533417,-0.040625959634780884,0.3068249523639679,-0.9424496293067932
66c1f778-c986-4529-b453-5f14168643e8,e2ae4576-3aab-436c-b771-98b69ba8b275,1760441601146722537,-0.324249,-1.438141,0.299454,-0.003418,-0.623535,0.834473,0.06906605632381563,-36.06473505667693,-164.73372611682092,0.12612034380435944,-0.04054993763566017,0.30688729882240295,-0.9424805045127869
66c1f778-c986-4529-b453-5f14168643e8,e2ae4576-3aab-436c-b771-98b69ba8b275,1760441601162726537,-0.566483,-2.290726,0.299454,0.001953,-0.611816,0.82666,0.03031350370383706,-36.08126730118694,-164.80505165407888,0.12563152611255646,-0.040695808827877045,0.30700597167015076,-0.9425008893013
66c1f778-c986-4529-b453-5f14168643e8,e2ae4576-3aab-436c-b771-98b69ba8b275,1760441601170750537,-0.078201,-2.10762,0.116348,-0.002441,-0.610352,0.838867,0.01102164966212232,-36.0846115500344,-164.85643179999462,0.1252594143152237,-0.04072049260139465,0.3070306181907654,-0.9425413012504578
66c1f778-c986-4529-b453-5f14168643e8,e2ae4576-3aab-436c-b771-98b69ba8b275,1760441601178774537,0.043869,-1.680374,0.299454,0.007813,-0.607422,0.82959,-0.003611448154521776,-36.08748612830061,-164.91654150866495,0.12480317056179047,-0.04068293049931526,0.307059645652771,-0.9425939917564392
66c1f778-c986-4529-b453-5f14168643e8,e2ae4576-3aab-436c-b771-98b69ba8b275,1760441601186798537,-0.383377,-1.314163,0.299454,0.003906,-0.624023,0.828613,-0.017339323979210373,-36.09472724440283,-164.96438703471574,0.12444383651018143,-0.040675509721040726,0.30712127685546875,-0.9426217079162598
66c1f778-c986-4529-b453-5f14168643e8,e2ae4576-3aab-436c-b771-98b69ba8b275,1760441601197447537,-0.507355,-1.010895,0.177383,0.008789,-0.594727,0.826172,-0.020734200038622114,-36.09521084871244,-165.01247832440166,0.12405715882778168,-0.0405750647187233,0.3071386218070984,-0.9426713585853577
66c1f778-c986-4529-b453-5f14168643e8,e2ae4576-3aab-436c-b771-98b69ba8b275,1760441601208096537,-0.507355,-1.255035,0.238419,0.010254,-0.60791,0.817871,-0.028034333824415784,-36.09608111036358,-165.0524862545828,0.12374728918075562,-0.04052881896495819,0.30715203285217285,-0.942709743976593
66c1f778-c986-4529-b453-5f14168643e8,e2ae4576-3aab-436c-b771-98b69ba8b275,1760441601218745537,-0.566483,-0.947952,0.055313,0.012207,-0.616699,0.841797,-0.04062210269557443,-36.1020153907761,-165.07922054443864,0.12355902791023254,-0.04056710749864578,0.3071967363357544,-0.9427182078361511
66c1f778-c986-4529-b453-5f14168643e8,e2ae4576-3aab-436c-b771-98b69ba8b275,1760441601229435537,-0.566483,-1.008987,-0.127792,0.007324,-0.609375,0.841309,-0.04833170635337166,-36.10568115567799,-165.08754972007625,0.12350989878177643,-0.04061214625835419,0.30722153186798096,-0.9427146315574646
66c1f778-c986-4529-b453-5f14168643e8,e2ae4576-3aab-436c-b771-98b69ba8b275,1760441601240124537,-0.627518,-1.375198,-0.127792,0.01709,-0.600586,0.833008,-0.057517276020927446,-36.10770988120161,-165.12905205575296,0.12319239228963852,-0.04057862609624863,0.3072430491447449,-0.9427505731582642
66c1f778-c986-4529-b453-5f14168643e8,e2ae4576-3aab-436c-b771-98b69ba8b275,1760441601250813537,-0.383377,-1.436234,-0.066757,0.016602,-0.617676,0.827148,-0.07036572539252076,-36.107432728535045,-165.16109603832075,0.1229633018374443,-0.04059811681509018,0.30723831057548523,-0.9427812099456787
66c1f778-c986-4529-b453-5f14168643e8,e2ae4576-3aab-436c-b771-98b69ba8b275,1760441601258796537,0.41008,-1.253128,0.055313,0.006348,-0.607422,0.839355,-0.08880293006589092,-36.1083001673263,-165.18714481233454,0.1227981224656105,-0.040680892765522,0.30723491311073303,-0.9428002834320068
66c1f778-c986-4529-b453-5f14168643e8,e2ae4576-3aab-436c-b771-98b69ba8b275,1760441601266779537,0.289917,-1.499176,0.116348,0.014648,-0.625,0.822266,-0.1008313218780062,-36.112132177433146,-165.2039556961353,0.12269075214862823,-0.040738869458436966,0.30725952982902527,-0.9428037405014038
66c1f778-c986-4529-b453-5f14168643e8,e2ae4576-3aab-436c-b771-98b69ba8b275,1760441601274762537,0.164032,-0.94986,-0.127792,0.019531,-0.609863,0.82959,-0.10894039468444339,-36.111303675980466,-165.2144995322382,0.12262602895498276,-0.040776435285806656,0.3072477877140045,-0.9428143501281738
66c1f778-c986-4529-b453-5f14168643e8,e2ae4576-3aab-436c-b771-98b69ba8b275,1760441601282745537,0.164032,-0.94986,-0.249863,0.018555,-0.620605,0.831055,-0.11645942644427147,-36.11583760113721,-165.2220608843315,0.12258243560791016,-0.04082284867763519,0.3072797358036041,-0.9428076148033142
66c1f778-c986-4529-b453-5f14168643e8,e2ae4576-3aab-436c-b771-98b69ba8b275,1760441601293423537,0.041962,-1.316071,-0.616074,0.025391,-0.625488,0.834961,-0.1324281933267816,-36.12014698449982,-165.2311159948084,0.12254929542541504,-0.04093453288078308,0.3073013424873352,-0.9428000450134277
66c1f778-c986-4529-b453-5f14168643e8,e2ae4576-3aab-436c-b771-98b69ba8b275,1760441601304101537,0.225067,-0.522614,-0.860214,0.020996,-0.624023,0.825195,-0.14252545341350617,-36.12666543792677,-165.30392283712067,0.12197514623403549,-0.04082925617694855,0.3073701858520508,-0.9428566098213196
66c1f778-c986-4529-b453-5f14168643e8,e2ae4576-3aab-436c-b771-98b69ba8b275,1760441601314779537,-0.261307,-0.276566,-1.104355,0.026367,-0.616211,0.828125,-0.152404535897159,-36.12984695672938,-165.35168160424575,0.12160761654376984,-0.04078579321503639,0.3074028789997101,-0.9428952932357788
66c1f778-c986-4529-b453-5f14168643e8,e2ae4576-3aab-436c-b771-98b69ba8b275,1760441601322775537,-0.139236,0.02861,-0.921249,-0.000488,-0.602539,0.82666,-0.15880546904917917,-36.130413442338025,-165.34940243924726,0.12164334952831268,-0.04084517061710358,0.3073999285697937,-0.9428890943527222
66c1f778-c986-4529-b453-5f14168643e8,e2ae4576-3aab-436c-b771-98b69ba8b275,1760441601330769537,0.593185,-0.09346,-1.16539,0.011719,-0.625977,0.844238,-0.15979458013336292,-36.1306014936497,-165.37464938370158,0.12143820524215698,-0.040785785764455795,0.3074094355106354,-0.9429149627685547
66c1f778-c986-4529-b453-5f14168643e8,e2ae4576-3aab-436c-b771-98b69ba8b275,1760441601338763537,1.020432,0.02861,-1.16539,0.009766,-0.617676,0.82666,-0.16933186315320475,-36.1297497670484,-165.41330903796342,0.12114594876766205,-0.040759652853012085,0.30740606784820557,-0.9429548382759094
66c1f778-c986-4529-b453-5f14168643e8,e2ae4576-3aab-436c-b771-98b69ba8b275,1760441601346757537,0.715256,0.333786,-0.921249,0.001953,-0.597168,0.841309,-0.17600597390504746,-36.129607171592134,-165.43463880056467,0.1209883838891983,-0.040757209062576294,0.3074054419994354,-0.9429753422737122
66c1f778-c986-4529-b453-5f14168643e8,e2ae4576-3aab-436c-b771-98b69ba8b275,1760441601357425537,0.898361,0.02861,-0.799179,-0.004395,-0.604492,0.839355,-0.1763313915172899,-36.126852589865095,-165.46100274459522,0.12077321112155914,-0.04068627953529358,0.30739179253578186,-0.9430104494094849
66c1f778-c986-4529-b453-5f14168643e8,e2ae4576-3aab-436c-b771-98b69ba8b275,1760441601368093537,1.140594,-0.213623,-0.860214,0.0,-0.601074,0.843262,-0.17640984581942926,-36.12288304823191,-165.5082397474497,0.12038598954677582,-0.04055607318878174,0.30737578868865967,-0.9430707693099976
66c1f778-c986-4529-b453-5f14168643e8,e2ae4576-3aab-436c-b771-98b69ba8b275,1760441601378761537,1.266479,-0.522614,-0.555038,-0.00293,-0.611328,0.842773,-0.18522005222250235,-36.10981056726908,-165.56539961225155,0.11994345486164093,-0.04046168178319931,0.30727913975715637,-0.943162739276886
66c1f778-c986-4529-b453-5f14168643e8,e2ae4576-3aab-436c-b771-98b69ba8b275,1760441601389408537,1.569748,-0.337601,-0.188828,0.004883,-0.60498,0.827637,-0.19241609981322716,-36.09154771709008,-165.60373857421422,0.1196531280875206,-0.04039920121431351,0.30713480710983276,-0.9432492852210999
66c1f778-c986-4529-b453-5f14168643e8,e2ae4576-3aab-436c-b771-98b69ba8b275,1760441601400057537,1.508713,-0.398636,-0.066757,0.015137,-0.600098,0.827637,-0.1969701325351607,-36.07756045425713,-165.63448482211135,0.11941677331924438,-0.04033983126282692,0.3070257306098938,-0.9433172941207886
66c1f778-c986-4529-b453-5f14168643e8,e2ae4576-3aab-436c-b771-98b69ba8b275,1760441601410706537,1.266479,-0.522614,0.177383,0.012207,-0.609863,0.830078,-0.20044501147071248,-36.06959026487056,-165.67030929001123,0.11913374811410904,-0.04026424512267113,0.3069691061973572,-0.9433746933937073
66c1f778-c986-4529-b453-5f14168643e8,e2ae4576-3aab-436c-b771-98b69ba8b275,1760441601421423537,1.140594,-0.644684,0.543594,0.001953,-0.596191,0.818359,-0.21015528898696453,-36.06419123791742,-165.64856665943748,0.11934048682451248,-0.04039685055613518,0.30690687894821167,-0.9433631896972656
66c1f778-c986-4529-b453-5f14168643e8,e2ae4576-3aab-436c-b771-98b69ba8b275,1760441601432141537,0.898361,-0.459671,0.238419,0.011719,-0.598633,0.832519,-0.21049189460249032,-36.06230761498954,-165.63319787199757,0.11946851760149002,-0.04043883830308914,0.30688560009002686,-0.9433521032333374
66c1f778-c986-4529-b453-5f14168643e8,e2ae4576-3aab-436c-b771-98b69ba8b275,1760441601442859537,0.593185,-0.276566,0.177383,0.021484,-0.603027,0.831543,-0.21316381311504073,-36.06138984830389,-165.6420779975689,0.11940286308526993,-0.04043610394001007,0.30687838792800903,-0.9433628916740417
66c1f778-c986-4529-b453-5f14168643e8,e2ae4576-3aab-436c-b771-98b69ba8b275,1760441601453473537,0.469208,-0.156403,0.055313,0.008301,-0.596191,0.831543,-0.2192122421524509,-36.05735498327946,-165.6805715221444,0.11910346150398254,-0.04037866368889809,0.30685245990753174,-0.9434115886688232
66c1f778-c986-4529-b453-5f14168643e8,e2ae4576-3aab-436c-b771-98b69ba8b275,1760441601464088537,0.28801,-0.21553,-0.127792,0.001465,-0.61084,0.821289,-0.2197515433530949,-36.05808605423771,-165.73125444633615,0.11868739128112793,-0.04024812579154968,0.30687573552131653,-0.943462073802948
66c1f778-c986-4529-b453-5f14168643e8,e2ae4576-3aab-436c-b771-98b69ba8b275,1760441601474703537,0.043869,-0.21553,-0.249863,0.010742,-0.590332,0.830566,-0.2237936901306736,-36.05202231424749,-165.77816591426836,0.11831390857696533,-0.04014958441257477,0.30683809518814087,-0.9435253739356995
66c1f778-c986-4529-b453-5f14168643e8,e2ae4576-3aab-436c-b771-98b69ba8b275,1760441601482712537,0.164032,-0.339508,-0.249863,-0.002441,-0.590332,0.833008,-0.22727657161907636,-36.049011654831865,-165.82387311932243,0.11794783174991608,-0.04005280137062073,0.3068256974220276,-0.943579375743866
66c1f778-c986-4529-b453-5f14168643e8,e2ae4576-3aab-436c-b771-98b69ba8b275,1760441601490721537,-0.017166,-0.09346,-0.310898,-0.007812,-0.583984,0.831543,-0.22380519925221257,-36.04360410789465,-165.82835241679342,0.11790336668491364,-0.040006715804338455,0.30678629875183105,-0.9435997009277344
66c1f778-c986-4529-b453-5f14168643e8,e2ae4576-3aab-436c-b771-98b69ba8b275,1760441601498730537,0.104904,-0.337601,-0.066757,-0.00293,-0.592285,0.821777,-0.22272329734677818,-36.03728032177208,-165.8502634465463,0.1177220419049263,-0.03993271291255951,0.30674296617507935,-0.9436395764350891
66c1f778-c986-4529-b453-5f14168643e8,e2ae4576-3aab-436c-b771-98b69ba8b275,1760441601506739537,-0.261307,-0.337601,-0.005722,-0.008301,-0.603516,0.829102,-0.21799015074496453,-36.033734468139905,-165.8998963336771,0.11730176210403442,-0.03975727781653404,0.3067358732223511,-0.9437016248703003
66c1f778-c986-4529-b453-5f14168643e8,e2ae4576-3aab-436c-b771-98b69ba8b275,1760441601517407537,-0.200272,-0.459671,-0.066757,-0.009766,-0.602539,0.82959,-0.21120291968260227,-36.031483741933876,-165.91680299864402,0.11714507639408112,-0.039653852581977844,0.30673015117645264,-0.9437272548675537
66c1f778-c986-4529-b453-5f14168643e8,e2ae4576-3aab-436c-b771-98b69ba8b275,1760441601528075537,-0.139236,-0.764847,0.360489,0.004395,-0.613281,0.835449,-0.20498404007515147,-36.02957312836047,-165.93934556316287,0.1169433742761612,-0.039540357887744904,0.3067285418510437,-0.9437575936317444
66c1f778-c986-4529-b453-5f14168643e8,e2ae4576-3aab-436c-b771-98b69ba8b275,1760441601538743537,-0.749588,-0.764847,0.360489,-0.008301,-0.587891,0.818848,-0.2044314440341985,-36.02950955517842,-165.97883314710742,0.11661669611930847,-0.03943004459142685,0.30674219131469727,-0.9437981843948364
66c1f778-c986-4529-b453-5f14168643e8,e2ae4576-3aab-436c-b771-98b69ba8b275,1760441601549397537,-1.298904,-1.070023,0.84877,-0.00293,-0.584961,0.824219,-0.1994554264871422,-36.04126864501201,-165.99530909239994,0.11646397411823273,-0.03935679793357849,0.30684977769851685,-0.9437851309776306
66c1f778-c986-4529-b453-5f14168643e8,e2ae4576-3aab-436c-b771-98b69ba8b275,1760441601560051537,-1.35994,-1.192093,1.092911,-0.00293,-0.600098,0.833008,-0.20140727635036254,-36.05335009202044,-166.02456410277972,0.11622446030378342,-0.039306677877902985,0.3069573640823364,-0.9437817335128784
66c1f778-c986-4529-b453-5f14168643e8,e2ae4576-3aab-436c-b771-98b69ba8b275,1760441601570705537,-1.239777,-1.010895,1.276016,-0.015137,-0.597168,0.827148,-0.19690894273955653,-36.06493111473002,-166.04573335767077,0.11603441834449768,-0.0392245389521122,0.30706456303596497,-0.9437736868858337
66c1f778-c986-4529-b453-5f14168643e8,e2ae4576-3aab-436c-b771-98b69ba8b275,1760441601578738537,-1.543045,-1.253128,1.153946,-0.012695,-0.61084,0.835449,-0.197949683081046,-36.07116033427776,-166.05909158108554,0.11592523753643036,-0.03920356184244156,0.3071193993091583,-0.9437701106071472
66c1f778-c986-4529-b453-5f14168643e8,e2ae4576-3aab-436c-b771-98b69ba8b275,1760441601586773537,-1.35994,-1.680374,1.398087,0.000977,-0.604492,0.833984,-0.19659016393401996,-36.08098583190331,-166.03937478354416,0.1160808876156807,-0.03925506770610809,0.30719494819641113,-0.9437242746353149
66c1f778-c986-4529-b453-5f14168643e8,e2ae4576-3aab-436c-b771-98b69ba8b275,1760441601594808537,-1.115799,-1.86348,1.642227,0.008789,-0.600098,0.821777,-0.20168261087638994,-36.08903563304209,-166.0375620898404,0.11610694229602814,-0.039309948682785034,0.30725547671318054,-0.943699061870575
66c1f778-c986-4529-b453-5f14168643e8,e2ae4576-3aab-436c-b771-98b69ba8b275,1760441601602843537,-1.483917,-1.861572,1.581192,-0.004395,-0.609375,0.824219,-0.20958491374972243,-36.1041268251584,-166.06350082229983,0.11590979248285294,-0.03932059556245804,0.30738067626953125,-0.943682074546814
66c1f778-c986-4529-b453-5f14168643e8,e2ae4576-3aab-436c-b771-98b69ba8b275,1760441601613460537,-1.848221,-1.86348,1.581192,0.013672,-0.586914,0.828613,-0.2128976034016217,-36.122651227148914,-166.06915349959237,0.11586633324623108,-0.03935125842690468,0.30753183364868164,-0.9436368942260742
66c1f778-c986-4529-b453-5f14168643e8,e2ae4576-3aab-436c-b771-98b69ba8b275,1760441601624077537,-2.155304,-1.743317,1.581192,0.012207,-0.580078,0.825684,-0.21908782135508872,-36.13595058859364,-166.0741005607019,0.11583805084228516,-0.03940226137638092,0.3076367974281311,-0.943604052066803
66c1f778-c986-4529-b453-5f14168643e8,e2ae4576-3aab-436c-b771-98b69ba8b275,1760441601634694537,-1.972198,-1.316071,1.398087,0.006348,-0.610352,0.844238,-0.22493391091371653,-36.15071450021052,-166.0815075697217,0.11578814685344696,-0.03944527730345726,0.3077550232410431,-0.9435698390007019
66c1f778-c986-4529-b453-5f14168643e8,e2ae4576-3aab-436c-b771-98b69ba8b275,1760441601645390537,-1.667023,-1.743317,1.520157,0.010742,-0.601074,0.830566,-0.23338745673195688,-36.181775981201,-166.10721144702975,0.11558954417705536,-0.039476849138736725,0.30801114439964294,-0.9435092806816101
66c1f778-c986-4529-b453-5f14168643e8,e2ae4576-3aab-436c-b771-98b69ba8b275,1760441601656087537,-1.848221,-2.168655,1.642227,0.01416,-0.597656,0.831055,-0.24528415357796682,-36.19696181139422,-166.13805677872514,0.11536285281181335,-0.03950701281428337,0.30813485383987427,-0.9434953331947327
66c1f778-c986-4529-b453-5f14168643e8,e2ae4576-3aab-436c-b771-98b69ba8b275,1760441601666784537,-1.667023,-2.044678,1.398087,0.004883,-0.611816,0.836914,-0.25464665249110635,-36.209246456169716,-166.1726364027199,0.11509951949119568,-0.0395033024251461,0.30823850631713867,-0.9434938430786133
66c1f778-c986-4529-b453-5f14168643e8,e2ae4576-3aab-436c-b771-98b69ba8b275,1760441601677445537,-1.35994,-2.290726,1.642227,0.014648,-0.594727,0.832519,-0.26554926736723006,-36.2192964768683,-166.20924684221436,0.1148243322968483,-0.03950454294681549,0.3083229660987854,-0.9434996843338013
66c1f778-c986-4529-b453-5f14168643e8,e2ae4576-3aab-436c-b771-98b69ba8b275,1760441601688104537,-1.667023,-1.987457,1.764297,0.013672,-0.600098,0.832031,-0.2744898696218574,-36.22703523829961,-166.1940103342467,0.11497146636247635,-0.03962681442499161,0.30837246775627136,-0.9434604644775391
66c1f778-c986-4529-b453-5f14168643e8,e2ae4576-3aab-436c-b771-98b69ba8b275,1760441601698763537,-1.909256,-1.86348,1.764297,0.022461,-0.600586,0.824219,-0.28544836485602,-36.240605010465835,-166.17347057419866,0.11516590416431427,-0.03978576138615608,0.3084660768508911,-0.9433994889259338
66c1f778-c986-4529-b453-5f14168643e8,e2ae4576-3aab-436c-b771-98b69ba8b275,1760441601709409537,-2.155304,-1.190186,1.642227,0.023438,-0.602051,0.822754,-0.3075849184238453,-36.270731718604154,-166.19669273214546,0.11502514779567719,-0.03993530571460724,0.30869999527931213,-0.9433338046073914
66c1f778-c986-4529-b453-5f14168643e8,e2ae4576-3aab-436c-b771-98b69ba8b275,1760441601720054537,-2.519608,-0.947952,1.764297,0.005859,-0.599609,0.823242,-0.3113900444756383,-36.29161379758024,-166.1622364025059,0.11531267315149307,-0.04008015617728233,0.3088560700416565,-0.9432414770126343
66c1f778-c986-4529-b453-5f14168643e8,e2ae4576-3aab-436c-b771-98b69ba8b275,1760441601730699537,-2.702713,-0.886917,1.764297,0.01123,-0.602051,0.836426,-0.31485976740094124,-36.31254072865243,-166.15706469966557,0.11535821110010147,-0.04014341160655022,0.30902305245399475,-0.9431785345077515
66c1f778-c986-4529-b453-5f14168643e8,e2ae4576-3aab-436c-b771-98b69ba8b275,1760441601738710537,-2.5177,-1.010895,1.947403,0.034668,-0.615234,0.813477,-0.3184505003811239,-36.333397814341495,-166.1749029482061,0.11521472036838531,-0.040145520120859146,0.30919739603996277,-0.943138837814331
66c1f778-c986-4529-b453-5f14168643e8,e2ae4576-3aab-436c-b771-98b69ba8b275,1760441601746721537,-2.702713,-1.436234,1.703262,0.013184,-0.620117,0.828125,-0.3305391781077606,-36.361783442488694,-166.22654820493744,0.1148136779665947,-0.04013366624712944,0.3094370365142822,-0.9431096315383911
66c1f778-c986-4529-b453-5f14168643e8,e2ae4576-3aab-436c-b771-98b69ba8b275,1760441601754732537,-2.946854,-0.886917,1.825333,0.030762,-0.616211,0.82373,-0.3326244699420034,-36.39027010913574,-166.19843050712208,0.1150420755147934,-0.04025490581989288,0.30965957045555115,-0.9430035948753357
66c1f778-c986-4529-b453-5f14168643e8,e2ae4576-3aab-436c-b771-98b69ba8b275,1760441601762743537,-2.824783,-0.764847,1.337051,0.02002,-0.620117,0.828125,-0.3406831619931753,-36.41760171649446,-166.16792161302843,0.11530660837888718,-0.04043072462081909,0.30986568331718445,-0.9428960680961609
66c1f778-c986-4529-b453-5f14168643e8,e2ae4576-3aab-436c-b771-98b69ba8b275,1760441601773394537,-2.763748,-0.886917,1.092911,0.024414,-0.611328,0.830566,-0.34908292173105987,-36.44475642367063,-166.1910216067613,0.11513102054595947,-0.040464211255311966,0.3100888729095459,-0.9428427219390869
66c1f778-c986-4529-b453-5f14168643e8,e2ae4576-3aab-436c-b771-98b69ba8b275,1760441601784045537,-2.519608,-0.581741,1.153946,0.021973,-0.628906,0.831543,-0.3557197091552066,-36.46854166711855,-166.19240876324892,0.11513037234544754,-0.04053856432437897,0.31027844548225403,-0.9427772164344788
66c1f778-c986-4529-b453-5f14168643e8,e2ae4576-3aab-436c-b771-98b69ba8b275,1760441601794696537,-2.824783,-0.642776,1.276016,0.013672,-0.610352,0.823242,-0.3615952088273159,-36.4943567397442,-166.15242271099203,0.11546742171049118,-0.04072074219584465,0.3104707896709442,-0.9426648020744324
66c1f778-c986-4529-b453-5f14168643e8,e2ae4576-3aab-436c-b771-98b69ba8b275,1760441601805401537,-2.702713,0.211716,1.031876,0.003418,-0.620117,0.817871,-0.36243578696148043,-36.54515035031068,-166.16006269039178,0.11539144068956375,-0.04075723886489868,0.3108905851840973,-0.9425341486930847
66c1f778-c986-4529-b453-5f14168643e8,e2ae4576-3aab-436c-b771-98b69ba8b275,1760441601816107537,-2.948761,0.453949,0.787735,0.022461,-0.60498,0.825195,-0.36305772758812416,-36.56853404805077,-166.166506511023,0.11533302813768387,-0.04076800495386124,0.3110846281051636,-0.9424768090248108
66c1f778-c986-4529-b453-5f14168643e8,e2ae4576-3aab-436c-b771-98b69ba8b275,1760441601826813537,-3.190994,1.310349,0.787735,0.008789,-0.609863,0.817871,-0.3534255185524766,-36.59835074704117,-166.22472184750893,0.11481902003288269,-0.04056010767817497,0.311360239982605,-0.9424575567245483
66c1f778-c986-4529-b453-5f14168643e8,e2ae4576-3aab-436c-b771-98b69ba8b275,1760441601837469537,-3.131866,1.613617,0.421524,0.01709,-0.624023,0.826172,-0.34415301081559424,-36.62862911187783,-166.2932363101121,0.11422114819288254,-0.04032735526561737,0.31164276599884033,-0.9424468278884888
66c1f778-c986-4529-b453-5f14168643e8,e2ae4576-3aab-436c-b771-98b69ba8b275,1760441601848126537,-3.131866,1.491547,0.238419,0.015137,-0.625488,0.824707,-0.33725636597572783,-36.6598999999246,-166.36184420191657,0.11362868547439575,-0.040114548057317734,0.31193095445632935,-0.942432165145874
66c1f778-c986-4529-b453-5f14168643e8,e2ae4576-3aab-436c-b771-98b69ba8b275,1760441601858783537,-2.946854,1.859665,-0.127792,0.015625,-0.628418,0.822266,-0.32924248922555954,-36.689805694132865,-166.39722463234315,0.11330687254667282,-0.039981432259082794,0.3121972680091858,-0.9423883557319641
66c1f778-c986-4529-b453-5f14168643e8,e2ae4576-3aab-436c-b771-98b69ba8b275,1760441601866761537,-2.46048,1.308441,-0.371933,0.008789,-0.632812,0.832031,-0.31631653950393884,-36.74730864751089,-166.42977548728246,0.11298658698797226,-0.03984227776527405,0.31269434094429016,-0.942267894744873
66c1f778-c986-4529-b453-5f14168643e8,e2ae4576-3aab-436c-b771-98b69ba8b275,1760441601874741537,-2.155304,1.491547,-0.494003,0.01416,-0.63623,0.828613,-0.3072249676310785,-36.77237247701665,-166.48392655831907,0.11250892281532288,-0.03964398428797722,0.3129281997680664,-0.9422557950019836
66c1f778-c986-4529-b453-5f14168643e8,e2ae4576-3aab-436c-b771-98b69ba8b275,1760441601882721537,-1.60408,1.066208,-0.310898,-0.000488,-0.641602,0.819824,-0.2960509089185478,-36.79496335946388,-166.53417023058222,0.11205843836069107,-0.03943665698170662,0.3131422698497772,-0.9422470927238464
66c1f778-c986-4529-b453-5f14168643e8,e2ae4576-3aab-436c-b771-98b69ba8b275,1760441601890701537,-0.995636,1.125336,-0.310898,-0.009277,-0.628906,0.834473,-0.2826316108157859,-36.80917240911875,-166.53651418154354,0.11199820041656494,-0.039333611726760864,0.3132730722427368,-0.9422150254249573
66c1f778-c986-4529-b453-5f14168643e8,e2ae4576-3aab-436c-b771-98b69ba8b275,1760441601901390537,-0.566483,0.883102,-0.371933,-0.001953,-0.638672,0.82666,-0.2788352510864909,-36.81500629854596,-166.52955444007608,0.11204327642917633,-0.039327047765254974,0.31332236528396606,-0.9421935677528381
66c1f778-c986-4529-b453-5f14168643e8,e2ae4576-3aab-436c-b771-98b69ba8b275,1760441601912079537,-0.141144,0.82016,-0.432968,-0.004883,-0.63916,0.82959,-0.27402423186508856,-36.823929427250285,-166.5586166010729,0.11178845912218094,-0.03921661153435707,0.3134104013442993,-0.942199170589447
66c1f778-c986-4529-b453-5f14168643e8,e2ae4576-3aab-436c-b771-98b69ba8b275,1760441601922768537,0.469208,1.308441,-0.249863,-0.004883,-0.628906,0.830078,-0.26510278284632627,-36.82593948307181,-166.6002415967787,0.11142119020223618,-0.03903133422136307,0.31344982981681824,-0.9422372579574585
66c1f778-c986-4529-b453-5f14168643e8,e2ae4576-3aab-436c-b771-98b69ba8b275,1760441601933426537,0.593185,0.883102,0.055313,-0.005371,-0.62793,0.826172,-0.2607835162635945,-36.82897699893434,-166.64900387666256,0.11100749671459198,-0.038865335285663605,0.31349557638168335,-0.942277729511261
66c1f778-c986-4529-b453-5f14168643e8,e2ae4576-3aab-436c-b771-98b69ba8b275,1760441601944085537,1.081467,0.333786,0.177383,-0.001953,-0.618164,0.835938,-0.2527943508448661,-36.83220874461267,-166.66715597026857,0.11083540320396423,-0.038753069937229156,0.31353604793548584,-0.9422891139984131
66c1f778-c986-4529-b453-5f14168643e8,e2ae4576-3aab-436c-b771-98b69ba8b275,1760441601954744537,1.386642,0.089645,0.7267,-0.001953,-0.64502,0.82373,-0.24072974506752703,-36.82246947247253,-166.6464695382566,0.11097544431686401,-0.0387011393904686,0.3134606182575226,-0.9422999024391174
66c1f778-c986-4529-b453-5f14168643e8,e2ae4576-3aab-436c-b771-98b69ba8b275,1760441601962810537,2.117157,-0.339508,1.153946,-0.009277,-0.635254,0.831055,-0.2193277235317167,-36.80286622341455,-166.62322823894397,0.11111399531364441,-0.03856992349028587,0.313312292098999,-0.9423382878303528
66c1f778-c986-4529-b453-5f14168643e8,e2ae4576-3aab-436c-b771-98b69ba8b275,1760441601970876537,2.300262,-0.644684,1.520157,-0.006348,-0.615234,0.833008,-0.20985222352363278,-36.78363764378779,-166.66999411236594,0.11070936173200607,-0.03834575042128563,0.31317901611328125,-0.9424393177032471
66c1f778-c986-4529-b453-5f14168643e8,e2ae4576-3aab-436c-b771-98b69ba8b275,1760441601978942537,2.117157,-0.94986,1.947403,0.004395,-0.617676,0.822754,-0.20525536046852694,-36.766638077506194,-166.68167015486844,0.11060594767332077,-0.03825979307293892,0.31304752826690674,-0.9424986243247986
66c1f778-c986-4529-b453-5f14168643e8,e2ae4576-3aab-436c-b771-98b69ba8b275,1760441601987008537,1.811981,-1.132965,1.947403,-0.007324,-0.606934,0.800293,-0.19903826269176994,-36.753536977621714,-166.70048467165603,0.11043819785118103,-0.03814475238323212,0.3129520118236542,-0.9425547122955322
66c1f778-c986-4529-b453-5f14168643e8,e2ae4576-3aab-436c-b771-98b69ba8b275,1760441601997620537,1.081467,-1.131058,1.947403,-0.010742,-0.631348,0.80957,-0.18904567990823373,-36.749938507068826,-166.73776009903784,0.11010539531707764,-0.0379573330283165,0.3129444122314453,-0.9426037073135376
66c1f778-c986-4529-b453-5f14168643e8,e2ae4576-3aab-436c-b771-98b69ba8b275,1760441602008232537,0.652313,-0.701904,1.947403,0.010254,-0.611816,0.80957,-0.18656366802344634,-36.74378590024401,-166.7598209431054,0.10991901159286499,-0.03787081688642502,0.3129034638404846,-0.9426425695419312
66c1f778-c986-4529-b453-5f14168643e8,e2ae4576-3aab-436c-b771-98b69ba8b275,1760441602018844537,0.41008,-0.886917,2.130508,0.016113,-0.617188,0.813965,-0.18706699834506205,-36.741654317147365,-166.74734498099465,0.11002366244792938,-0.03790699690580368,0.31288132071495056,-0.942636251449585
66c1f778-c986-4529-b453-5f14168643e8,e2ae4576-3aab-436c-b771-98b69ba8b275,1760441602026821537,0.835419,-0.522614,1.642227,0.013184,-0.621094,0.815918,-0.1840353429401814,-36.73631640339402,-166.69034795391474,0.11048586666584015,-0.03803258389234543,0.3128214478492737,-0.942596971988678
66c1f778-c986-4529-b453-5f14168643e8,e2ae4576-3aab-436c-b771-98b69ba8b275,1760441602034798537,0.652313,-0.94986,1.520157,0.001953,-0.60498,0.836914,-0.18762805285039422,-36.73243279442307,-166.68566224237782,0.1105353981256485,-0.03807121142745018,0.31278446316719055,-0.9426019191741943
66c1f778-c986-4529-b453-5f14168643e8,e2ae4576-3aab-436c-b771-98b69ba8b275,1760441602042775537,0.715256,-1.375198,1.398087,0.021973,-0.61377,0.82373,-0.19327748936251982,-36.725103849078494,-166.68744094018848,0.11053842306137085,-0.03810582682490349,0.31271931529045105,-0.9426217675209045
66c1f778-c986-4529-b453-5f14168643e8,e2ae4576-3aab-436c-b771-98b69ba8b275,1760441602050752537,0.349045,-1.86348,1.276016,0.015137,-0.633789,0.824707,-0.21045484577630333,-36.720573628267765,-166.65585628828038,0.11084648221731186,-0.038328975439071655,0.31265491247177124,-0.9425979256629944
66c1f778-c986-4529-b453-5f14168643e8,e2ae4576-3aab-436c-b771-98b69ba8b275,1760441602061415537,0.53215,-1.619339,1.153946,0.01709,-0.631836,0.824219,-0.22479991749313225,-36.72135047840286,-166.64029071744983,0.11101342737674713,-0.03849019110202789,0.3126422166824341,-0.9425758719444275
66c1f778-c986-4529-b453-5f14168643e8,e2ae4576-3aab-436c-b771-98b69ba8b275,1760441602072078537,0.776291,-1.802444,0.787735,0.016113,-0.61377,0.833984,-0.24275446099345677,-36.72390950770844,-166.6582883675084,0.11091359704732895,-0.03859122097492218,0.31265193223953247,-0.9425802826881409
66c1f778-c986-4529-b453-5f14168643e8,e2ae4576-3aab-436c-b771-98b69ba8b275,1760441602082741537,0.715256,-1.131058,0.60463,0.022949,-0.615723,0.82666,-0.25502294697067746,-36.71877420258515,-166.7028650329491,0.11058193445205688,-0.03856562077999115,0.3126128315925598,-0.9426332712173462
66c1f778-c986-4529-b453-5f14168643e8,e2ae4576-3aab-436c-b771-98b69ba8b275,1760441602090755537,0.349045,-0.886917,0.238419,0.025879,-0.615723,0.816895,-0.26385916083764427,-36.719183370859554,-166.7450509624562,0.11025888472795486,-0.038523606956005096,0.3126218616962433,-0.9426698684692383
66c1f778-c986-4529-b453-5f14168643e8,e2ae4576-3aab-436c-b771-98b69ba8b275,1760441602098769537,0.349045,-1.070023,0.360489,0.015137,-0.633301,0.830566,-0.27513974784689416,-36.720425362571156,-166.76863499510418,0.11009527742862701,-0.03855324164032936,0.31262916326522827,-0.9426853656768799
66c1f778-c986-4529-b453-5f14168643e8,e2ae4576-3aab-436c-b771-98b69ba8b275,1760441602106783537,0.226974,-0.947952,-0.005722,0.020996,-0.604004,0.833496,-0.27999467796606897,-36.724721806473234,-166.77188511532455,0.11008051782846451,-0.03858838975429535,0.31266096234321594,-0.9426750540733337
66c1f778-c986-4529-b453-5f14168643e8,e2ae4576-3aab-436c-b771-98b69ba8b275,1760441602114797537,0.165939,-0.886917,-0.188828,0.027344,-0.60791,0.82666,-0.2901942827617215,-36.7190409491689,-166.77626602489525,0.110073983669281,-0.038654960691928864,0.3126058876514435,-0.9426913857460022
66c1f778-c986-4529-b453-5f14168643e8,e2ae4576-3aab-436c-b771-98b69ba8b275,1760441602125500537,-0.324249,-0.701904,-0.494003,0.002441,-0.608887,0.822754,-0.299133721238642,-36.71835461711261,-166.7788818566016,0.11007705330848694,-0.038720715790987015,0.3125925362110138,-0.942692756652832
66c1f778-c986-4529-b453-5f14168643e8,e2ae4576-3aab-436c-b771-98b69ba8b275,1760441602136203537,0.165939,-0.764847,-0.494003,-0.001953,-0.630859,0.830566,-0.30141461433415656,-36.718052284257965,-166.79339490915396,0.10996397584676743,-0.03869960829615593,0.3125927746295929,-0.9427067041397095
66c1f778-c986-4529-b453-5f14168643e8,e2ae4576-3aab-436c-b771-98b69ba8b275,1760441602146906537,-0.324249,-0.827789,-0.616074,0.006348,-0.630371,0.834961,-0.2999848421502108,-36.720213831451595,-166.82869689493538,0.10966901481151581,-0.03859357908368111,0.3126238286495209,-0.9427351355552673
66c1f778-c986-4529-b453-5f14168643e8,e2ae4576-3aab-436c-b771-98b69ba8b275,1760441602154883537,0.104904,0.02861,-0.494003,0.01416,-0.632324,0.82666,-0.30951037657932196,-36.72493590412012,-166.8204740719637,0.10976126790046692,-0.03869883343577385,0.31265079975128174,-0.9427111148834229
66c1f778-c986-4529-b453-5f14168643e8,e2ae4576-3aab-436c-b771-98b69ba8b275,1760441602162861537,0.349045,-0.09346,-0.066757,0.006348,-0.613281,0.821289,-0.3094819282043534,-36.726167951371025,-166.83029646172233,0.10968001931905746,-0.03867295756936073,0.312664270401001,-0.9427171945571899
66c1f778-c986-4529-b453-5f14168643e8,e2ae4576-3aab-436c-b771-98b69ba8b275,1760441602170839537,0.530243,-0.339508,-0.310898,0.001465,-0.621094,0.82373,-0.3085151167570745,-36.726909006279975,-166.86711942159056,0.10937422513961792,-0.03856522589921951,0.31268370151519775,-0.9427506923675537
66c1f778-c986-4529-b453-5f14168643e8,e2ae4576-3aab-436c-b771-98b69ba8b275,1760441602178817537,0.898361,0.089645,0.055313,0.007324,-0.625977,0.831543,-0.31125599441894936,-36.72968900448234,-166.90969442533228,0.10903061926364899,-0.038474202156066895,0.3127182722091675,-0.9427827596664429
66c1f778-c986-4529-b453-5f14168643e8,e2ae4576-3aab-436c-b771-98b69ba8b275,1760441602189452537,0.957489,0.209808,0.177383,-0.003418,-0.61377,0.82666,-0.30935209030597927,-36.72952156746805,-166.9523359700942,0.10867463797330856,-0.038342010229825974,0.312732994556427,-0.9428243637084961
66c1f778-c986-4529-b453-5f14168643e8,e2ae4576-3aab-436c-b771-98b69ba8b275,1760441602200087537,0.957489,0.274658,-0.005722,0.006348,-0.621582,0.832031,-0.31206896574233206,-36.72787901714032,-166.9985798826768,0.108302041888237,-0.03823663294315338,0.31273236870765686,-0.9428716897964478
66c1f778-c986-4529-b453-5f14168643e8,e2ae4576-3aab-436c-b771-98b69ba8b275,1760441602210722537,1.081467,0.394821,0.055313,-0.004883,-0.619629,0.829102,-0.30883850359010157,-36.72598450792793,-167.04197683064027,0.10793668776750565,-0.03808985650539398,0.3127342760562897,-0.9429188966751099
66c1f778-c986-4529-b453-5f14168643e8,e2ae4576-3aab-436c-b771-98b69ba8b275,1760441602221452537,1.3237,0.331879,0.055313,-0.000488,-0.612305,0.824707,-0.3074798214617973,-36.72354988336348,-166.99938215398694,0.10828416794538498,-0.03819265589118004,0.31270134449005127,-0.9428858160972595
66c1f778-c986-4529-b453-5f14168643e8,e2ae4576-3aab-436c-b771-98b69ba8b275,1760441602232182537,1.203537,0.272751,0.177383,-0.005859,-0.608887,0.82666,-0.30455093574059344,-36.720821000854045,-166.9823008824086,0.10841751098632812,-0.038212623447179794,0.31267595291137695,-0.9428781270980835
66c1f778-c986-4529-b453-5f14168643e8,e2ae4576-3aab-436c-b771-98b69ba8b275,1760441602242912537,1.506805,0.637054,0.421524,-0.002441,-0.602051,0.824707,-0.29346520645392715,-36.70569280303733,-167.01538909113876,0.10811938345432281,-0.03801705688238144,0.3125729262828827,-0.942954421043396
66c1f778-c986-4529-b453-5f14168643e8,e2ae4576-3aab-436c-b771-98b69ba8b275,1760441602253533537,1.264572,0.089645,0.787735,0.0,-0.600098,0.824219,-0.28216626712522286,-36.67802145984457,-166.98365847532943,0.10835772007703781,-0.03798484057188034,0.31234532594680786,-0.94300377368927
66c1f778-c986-4529-b453-5f14168643e8,e2ae4576-3aab-436c-b771-98b69ba8b275,1760441602264156537,1.081467,0.211716,1.092911,0.002441,-0.617188,0.829102,-0.2757169531079663,-36.66931840442267,-166.98209353271096,0.1083555594086647,-0.03792792186141014,0.31227928400039673,-0.9430281519889832
66c1f778-c986-4529-b453-5f14168643e8,e2ae4576-3aab-436c-b771-98b69ba8b275,1760441602274779537,1.140594,-0.339508,0.909805,-0.000977,-0.613281,0.835938,-0.26896364452013816,-36.657257467072256,-166.99390355247124,0.10824348032474518,-0.037828922271728516,0.31219029426574707,-0.9430744647979736
66c1f778-c986-4529-b453-5f14168643e8,e2ae4576-3aab-436c-b771-98b69ba8b275,1760441602282775537,1.264572,-0.398636,1.031876,-0.009277,-0.615234,0.825684,-0.260830427420157,-36.645468161182,-167.02831825375878,0.10794151574373245,-0.03765726089477539,0.3121122419834137,-0.9431418180465698
66c1f778-c986-4529-b453-5f14168643e8,e2ae4576-3aab-436c-b771-98b69ba8b275,1760441602290774537,0.652313,-0.701904,1.153946,0.004883,-0.61377,0.835449,-0.2527318912864353,-36.63742350620776,-167.029044737998,0.10791582614183426,-0.037581149488687515,0.3120538890361786,-0.9431670904159546
66c1f778-c986-4529-b453-5f14168643e8,e2ae4576-3aab-436c-b771-98b69ba8b275,1760441602298773537,0.652313,-0.339508,1.092911,0.005371,-0.603516,0.821777,-0.2480647225363562,-36.63286689844289,-167.04772232867924,0.10775071382522583,-0.03748764097690582,0.31202688813209534,-0.9431986212730408
66c1f778-c986-4529-b453-5f14168643e8,e2ae4576-3aab-436c-b771-98b69ba8b275,1760441602306772537,0.043869,-0.459671,1.214981,-0.011719,-0.601074,0.832519,-0.2460295306543446,-36.62837360611793,-167.08712884944336,0.1074221208691597,-0.03735942766070366,0.3120046854019165,-0.9432485103607178
66c1f778-c986-4529-b453-5f14168643e8,e2ae4576-3aab-436c-b771-98b69ba8b275,1760441602317433537,0.469208,-0.461578,1.214981,0.013184,-0.613281,0.834961,-0.23540442776186388,-36.620238096690585,-167.03066404530796,0.10786034166812897,-0.03741813823580742,0.31192925572395325,-0.9432211518287659
66c1f778-c986-4529-b453-5f14168643e8,e2ae4576-3aab-436c-b771-98b69ba8b275,1760441602328094537,0.471115,-0.581741,1.337051,0.003906,-0.61084,0.844727,-0.2380581560402806,-36.61341905678949,-166.9761735463,0.10831807553768158,-0.03758193552494049,0.3118527829647064,-0.9431874752044678
66c1f778-c986-4529-b453-5f14168643e8,e2ae4576-3aab-436c-b771-98b69ba8b275,1760441602338755537,0.165939,-0.276566,1.153946,0.0,-0.612305,0.835449,-0.2380312046064185,-36.60965278117463,-167.0165223789983,0.10798699408769608,-0.03746839985251427,0.31183502078056335,-0.9432358145713806
66c1f778-c986-4529-b453-5f14168643e8,e2ae4576-3aab-436c-b771-98b69ba8b275,1760441602349413537,0.593185,-0.764847,1.520157,0.006836,-0.616699,0.848144,-0.2346523253237626,-36.59581781141163,-167.03981599178,0.10779010504484177,-0.03736433759331703,0.31173190474510193,-0.9432965517044067
66c1f778-c986-4529-b453-5f14168643e8,e2ae4576-3aab-436c-b771-98b69ba8b275,1760441602360071537,0.776291,-1.375198,1.276016,0.001953,-0.615723,0.830078,-0.23519121938665857,-36.58548056096477,-167.08053267688678,0.1074594035744667,-0.03724842891097069,0.3116595447063446,-0.9433627724647522
66c1f778-c986-4529-b453-5f14168643e8,e2ae4576-3aab-436c-b771-98b69ba8b275,1760441602370729537,0.898361,-1.375198,1.459122,-0.007812,-0.61084,0.82959,-0.23264110324080683,-36.574502382379606,-167.11468739885743,0.10717447847127914,-0.0371243953704834,0.31158262491226196,-0.9434254765510559
66c1f778-c986-4529-b453-5f14168643e8,e2ae4576-3aab-436c-b771-98b69ba8b275,1760441602378782537,0.837326,-1.436234,1.825333,-0.003418,-0.599121,0.832519,-0.23022222164829648,-36.56314346454107,-167.13429993077554,0.10700972378253937,-0.03704066574573517,0.31149768829345703,-0.9434755444526672
66c1f778-c986-4529-b453-5f14168643e8,e2ae4576-3aab-436c-b771-98b69ba8b275,1760441602386837537,0.593185,-1.619339,1.886368,0.005859,-0.606934,0.821777,-0.2301870818436068,-36.55170983923472,-167.09806921147165,0.10731125622987747,-0.03712828457355499,0.3113918602466583,-0.9434727430343628
66c1f778-c986-4529-b453-5f14168643e8,e2ae4576-3aab-436c-b771-98b69ba8b275,1760441602394892537,0.349045,-1.436234,2.069473,0.007324,-0.601074,0.816406,-0.23235486498089794,-36.54908188736061,-167.05626792355477,0.10766206681728363,-0.037257276475429535,0.3113546073436737,-0.9434400200843811
66c1f778-c986-4529-b453-5f14168643e8,e2ae4576-3aab-436c-b771-98b69ba8b275,1760441602402947537,0.104904,-1.924515,2.130508,0.0,-0.616699,0.824219,-0.23724460118367066,-36.54960578782472,-167.0402017139631,0.1078074723482132,-0.03734167292714119,0.311349093914032,-0.9434219002723694
66c1f778-c986-4529-b453-5f14168643e8,e2ae4576-3aab-436c-b771-98b69ba8b275,1760441602413544537,-0.263214,-1.987457,1.398087,0.013672,-0.603516,0.814453,-0.24170525162773038,-36.5530796718406,-167.01935272129975,0.10799022763967514,-0.0374382808804512,0.3113667070865631,-0.9433913230895996
66c1f778-c986-4529-b453-5f14168643e8,e2ae4576-3aab-436c-b771-98b69ba8b275,1760441602424141537,-0.324249,-1.678467,1.825333,0.018066,-0.609375,0.832519,-0.2491975053891764,-36.55288821796093,-166.98406015156417,0.10830118507146835,-0.03759567439556122,0.31134650111198425,-0.9433560967445374
66c1f778-c986-4529-b453-5f14168643e8,e2ae4576-3aab-436c-b771-98b69ba8b275,1760441602434738537,0.226974,-1.741409,1.459122,0.022949,-0.608887,0.829102,-0.26150164953031,-36.549006403131095,-166.98603991878826,0.10831944644451141,-0.037687964737415314,0.3113035559654236,-0.9433645009994507
66c1f778-c986-4529-b453-5f14168643e8,e2ae4576-3aab-436c-b771-98b69ba8b275,1760441602445399537,0.164032,-1.804352,1.398087,0.019043,-0.615234,0.831055,-0.2903777138109997,-36.54459571616991,-167.010833076782,0.10819505155086517,-0.03785422816872597,0.31124812364578247,-0.943390429019928
66c1f778-c986-4529-b453-5f14168643e8,e2ae4576-3aab-436c-b771-98b69ba8b275,1760441602456061537,0.164032,-1.804352,1.398087,0.019531,-0.624023,0.827637,-0.305362082084487,-36.5463011134485,-167.04769724210755,0.10793177038431168,-0.03787904605269432,0.3112602233886719,-0.9434155821800232
66c1f778-c986-4529-b453-5f14168643e8,e2ae4576-3aab-436c-b771-98b69ba8b275,1760441602466723537,-0.078201,-1.436234,0.84877,0.036133,-0.628418,0.82959,-0.3263075373481893,-36.549084776535345,-167.0934333681633,0.10761132836341858,-0.03792983293533325,0.3112785816192627,-0.9434440732002258
66c1f778-c986-4529-b453-5f14168643e8,e2ae4576-3aab-436c-b771-98b69ba8b275,1760441602477413537,-0.139236,-0.703812,0.665665,0.000488,-0.626953,0.834473,-0.3395472178511121,-36.54911951297322,-167.11783955153734,0.1074463427066803,-0.037972573190927505,0.31127452850341797,-0.9434624910354614
66c1f778-c986-4529-b453-5f14168643e8,e2ae4576-3aab-436c-b771-98b69ba8b275,1760441602488104537,0.043869,-0.459671,0.299454,0.009277,-0.622559,0.817383,-0.3408419699013777,-36.55067991347712,-167.11209511973485,0.1074967086315155,-0.03800027072429657,0.31128424406051636,-0.9434524774551392
66c1f778-c986-4529-b453-5f14168643e8,e2ae4576-3aab-436c-b771-98b69ba8b275,1760441602498795537,-0.139236,-0.09346,-0.066757,0.026855,-0.612305,0.80957,-0.3462693630033029,-36.556565226234156,-167.08125501632443,0.10776370018720627,-0.038134172558784485,0.3113173842430115,-0.9434056282043457
66c1f778-c986-4529-b453-5f14168643e8,e2ae4576-3aab-436c-b771-98b69ba8b275,1760441602509447537,-0.871658,1.005173,-0.616074,0.02832,-0.629395,0.8125,-0.36625353537517674,-36.57237297111796,-167.18847626370973,0.10693080723285675,-0.03802187740802765,0.31146445870399475,-0.9434564113616943
66c1f778-c986-4529-b453-5f14168643e8,e2ae4576-3aab-436c-b771-98b69ba8b275,1760441602520099537,-1.60408,1.066208,-1.409531,0.020996,-0.628418,0.829102,-0.3755257213149514,-36.587771682014825,-167.22188664126608,0.10667665302753448,-0.03802146762609482,0.3115937113761902,-0.9434425234794617
66c1f778-c986-4529-b453-5f14168643e8,e2ae4576-3aab-436c-b771-98b69ba8b275,1760441602530751537,-1.48201,1.371384,-1.775742,0.012695,-0.613281,0.811035,-0.38031230340799116,-36.60193453752064,-167.29502031514227,0.10608362406492233,-0.03787486255168915,0.31173011660575867,-0.9434702396392822
66c1f778-c986-4529-b453-5f14168643e8,e2ae4576-3aab-436c-b771-98b69ba8b275,1760441602538754537,-1.543045,1.554489,-2.019882,0.001465,-0.634277,0.84668,-0.3832084208812856,-36.614929017268,-167.3765188460307,0.1054169163107872,-0.037688713520765305,0.3118613362312317,-0.943509042263031
66c1f778-c986-4529-b453-5f14168643e8,e2ae4576-3aab-436c-b771-98b69ba8b275,1760441602546757537,-0.934601,1.613617,-2.019882,-0.006836,-0.616211,0.842285,-0.3799260154437577,-36.62574783510148,-167.4219105537565,0.10503128170967102,-0.037547871470451355,0.3119683563709259,-0.9435222744941711
66c1f778-c986-4529-b453-5f14168643e8,e2ae4576-3aab-436c-b771-98b69ba8b275,1760441602554760537,-0.688553,1.737595,-2.019882,0.001465,-0.621582,0.828125,-0.3745199904163494,-36.63281823657423,-167.4639331997807,0.10466862469911575,-0.037395283579826355,0.31204527616500854,-0.9435431957244873
66c1f778-c986-4529-b453-5f14168643e8,e2ae4576-3aab-436c-b771-98b69ba8b275,1760441602562763537,-0.261307,1.554489,-2.080917,-0.005859,-0.631348,0.825684,-0.3694669974893335,-36.63785122535499,-167.50837203026555,0.10428757965564728,-0.037237152457237244,0.31210580468177795,-0.9435716271400452
66c1f778-c986-4529-b453-5f14168643e8,e2ae4576-3aab-436c-b771-98b69ba8b275,1760441602573422537,0.53215,1.554489,-1.897812,-0.009277,-0.615234,0.826172,-0.36367224166618956,-36.63673676060126,-167.56551972844755,0.10380151867866516,-0.03703279048204422,0.3121204078197479,-0.9436284303665161
66c1f778-c986-4529-b453-5f14168643e8,e2ae4576-3aab-436c-b771-98b69ba8b275,1760441602584081537,0.53215,0.761032,-1.836777,-0.02002,-0.611816,0.826172,-0.3586417329130359,-36.63095451871968,-167.58926111386788,0.10359387844800949,-0.03692157194018364,0.31208500266075134,-0.9436672925949097
66c1f778-c986-4529-b453-5f14168643e8,e2ae4576-3aab-436c-b771-98b69ba8b275,1760441602594740537,0.957489,0.579834,-1.16539,-0.013672,-0.600098,0.824219,-0.3496941544868774,-36.621685396754,-167.55749362790786,0.1038336306810379,-0.036926157772541046,0.31200650334358215,-0.9436667561531067
66c1f778-c986-4529-b453-5f14168643e8,e2ae4576-3aab-436c-b771-98b69ba8b275,1760441602602734537,1.142502,0.089645,-0.188828,-0.006348,-0.62793,0.821777,-0.33522803247253147,-36.617499747138424,-167.61122117120135,0.10335291922092438,-0.036657024174928665,0.31200236082077026,-0.9437313675880432
66c1f778-c986-4529-b453-5f14168643e8,e2ae4576-3aab-436c-b771-98b69ba8b275,1760441602610729537,1.142502,-0.09346,0.116348,-0.014648,-0.606934,0.823242,-0.32631968264292965,-36.616916423153185,-167.59760509497903,0.10344095528125763,-0.036620210856199265,0.31200122833251953,-0.9437235593795776
66c1f778-c986-4529-b453-5f14168643e8,e2ae4576-3aab-436c-b771-98b69ba8b275,1760441602618724537,1.020432,-0.459671,0.97084,-0.004395,-0.606445,0.831055,-0.3231707602083262,-36.60383501807639,-167.5945477382922,0.1034611314535141,-0.03659099340438843,0.31189534068107605,-0.9437574744224548
66c1f778-c986-4529-b453-5f14168643e8,e2ae4576-3aab-436c-b771-98b69ba8b275,1760441602626719537,0.41008,-1.008987,0.84877,0.004883,-0.618164,0.823242,-0.32467573279272066,-36.602183599962785,-167.62724247356132,0.1031964048743248,-0.036512937396764755,0.3118908107280731,-0.9437909722328186
66c1f778-c986-4529-b453-5f14168643e8,e2ae4576-3aab-436c-b771-98b69ba8b275,1760441602637414537,0.28801,-0.764847,0.97084,0.001953,-0.613281,0.820801,-0.32430007890307067,-36.604596164680565,-167.66755396488173,0.10286271572113037,-0.03640225529670715,0.3119238615036011,-0.9438207149505615
66c1f778-c986-4529-b453-5f14168643e8,e2ae4576-3aab-436c-b771-98b69ba8b275,1760441602648109537,-0.324249,-0.827789,1.092911,-0.000488,-0.612793,0.826172,-0.32409648369343436,-36.60494229610461,-167.67680120886635,0.10278590023517609,-0.036375708878040314,0.3119298219680786,-0.9438281655311584
66c1f778-c986-4529-b453-5f14168643e8,e2ae4576-3aab-436c-b771-98b69ba8b275,1760441602658804537,-0.749588,-1.131058,1.337051,0.009277,-0.623047,0.822754,-0.32521923139024905,-36.60857595881685,-167.64861199087713,0.10302014648914337,-0.03646489977836609,0.31194978952407837,-0.9437925815582275
66c1f778-c986-4529-b453-5f14168643e8,e2ae4576-3aab-436c-b771-98b69ba8b275,1760441602666781537,-0.871658,-0.703812,0.909805,0.01416,-0.603516,0.832031,-0.32948406127230606,-36.612616917721404,-167.689818134186,0.10269127786159515,-0.03639140725135803,0.311992347240448,-0.9438171982765198
66c1f778-c986-4529-b453-5f14168643e8,e2ae4576-3aab-436c-b771-98b69ba8b275,1760441602674758537,-1.420975,-0.764847,0.7267,0.004883,-0.621582,0.822754,-0.3352224685376865,-36.62503149140565,-167.74098030340187,0.10228216648101807,-0.03631025552749634,0.3121057152748108,-0.9438272714614868
66c1f778-c986-4529-b453-5f14168643e8,e2ae4576-3aab-436c-b771-98b69ba8b275,1760441602682735537,-1.237869,-1.070023,0.7267,0.021484,-0.617676,0.825195,-0.35065726652900686,-36.637536806855096,-167.71727601693848,0.10251608490943909,-0.03651291877031326,0.31218740344047546,-0.9437670707702637
66c1f778-c986-4529-b453-5f14168643e8,e2ae4576-3aab-436c-b771-98b69ba8b275,1760441602690712537,-1.543045,-0.825882,0.116348,0.022461,-0.619629,0.819824,-0.3651797534667391,-36.65169617975321,-167.71000740713907,0.1026117280125618,-0.03666476160287857,0.31228873133659363,-0.9437172412872314
66c1f778-c986-4529-b453-5f14168643e8,e2ae4576-3aab-436c-b771-98b69ba8b275,1760441602698736537,-1.237869,0.02861,-0.188828,0.017578,-0.622559,0.827637,-0.37595974811764643,-36.656895420381495,-167.73977879877236,0.10239453613758087,-0.036676958203315735,0.3123314380645752,-0.9437262415885925
66c1f778-c986-4529-b453-5f14168643e8,e2ae4576-3aab-436c-b771-98b69ba8b275,1760441602706760537,-1.176834,0.089645,-0.555038,0.032227,-0.625977,0.825684,-0.3959013421737591,-36.665912493127365,-167.76580248018323,0.1022321879863739,-0.03677813708782196,0.31239625811576843,-0.943718433380127
66c1f778-c986-4529-b453-5f14168643e8,e2ae4576-3aab-436c-b771-98b69ba8b275,1760441602714784537,-1.117706,0.331879,-0.799179,0.019043,-0.624512,0.814453,-0.4058401806761169,-36.67785274040646,-167.80943060682083,0.10189684480428696,-0.036751437932252884,0.3124997615814209,-0.9437214732170105
66c1f778-c986-4529-b453-5f14168643e8,e2ae4576-3aab-436c-b771-98b69ba8b275,1760441602722808537,-0.749588,0.272751,-1.470566,0.021484,-0.629883,0.825195,-0.42295615560327027,-36.68836274532763,-167.88849501894373,0.10128963738679886,-0.03668586164712906,0.31259649991989136,-0.9437573552131653
66c1f778-c986-4529-b453-5f14168643e8,e2ae4576-3aab-436c-b771-98b69ba8b275,1760441602733472537,-0.749588,0.577927,-1.836777,0.012207,-0.627441,0.820801,-0.4374003502448693,-36.698537211863545,-167.92448028499712,0.10103004425764084,-0.03671541437506676,0.31267908215522766,-0.9437566995620728
66c1f778-c986-4529-b453-5f14168643e8,e2ae4576-3aab-436c-b771-98b69ba8b275,1760441602744136537,-0.627518,0.516891,-2.080917,0.025391,-0.633789,0.825195,-0.44922696297861525,-36.708935720773674,-167.95567314011757,0.10080275684595108,-0.036736633628606796,0.31276434659957886,-0.943751871585846
66c1f778-c986-4529-b453-5f14168643e8,e2ae4576-3aab-436c-b771-98b69ba8b275,1760441602754800537,-0.566483,0.638962,-2.264023,0.021484,-0.623047,0.82373,-0.46515438150835364,-36.71740517785829,-167.9748827222475,0.10068586468696594,-0.03682263195514679,0.3128262758255005,-0.9437404870986938
66c1f778-c986-4529-b453-5f14168643e8,e2ae4576-3aab-436c-b771-98b69ba8b275,1760441602762786537,-0.627518,1.188278,-2.386093,0.005859,-0.616211,0.820312,-0.47622579274866517,-36.721014006006996,-168.00958220024359,0.10042940080165863,-0.03682217001914978,0.312857449054718,-0.9437574744224548
66c1f778-c986-4529-b453-5f14168643e8,e2ae4576-3aab-436c-b771-98b69ba8b275,1760441602770774537,-0.44632,1.613617,-2.080917,0.016113,-0.620605,0.816406,-0.4775390788253356,-36.72735187909935,-168.0639045248567,0.09998399019241333,-0.03669005632400513,0.31292593479156494,-0.9437872171401978
66c1f778-c986-4529-b453-5f14168643e8,e2ae4576-3aab-436c-b771-98b69ba8b275,1760441602778762537,-0.261307,1.676559,-2.141953,0.011719,-0.624023,0.819824,-0.4800780205473672,-36.732988914998764,-168.0846150428464,0.09981893002986908,-0.03665918856859207,0.31297677755355835,-0.9437890648841858
66c1f778-c986-4529-b453-5f14168643e8,e2ae4576-3aab-436c-b771-98b69ba8b275,1760441602786750537,-0.139236,1.859665,-2.141953,0.006836,-0.628906,0.833008,-0.47845918453149483,-36.73594395934651,-168.11824100139128,0.09953682124614716,-0.03655651584267616,0.3130132853984833,-0.9438107013702393
66c1f778-c986-4529-b453-5f14168643e8,e2ae4576-3aab-436c-b771-98b69ba8b275,1760441602796353537,0.226974,1.79863,-1.897812,-0.007324,-0.623535,0.831543,-0.4745743994537166,-36.73724844276265,-168.17644791211737,0.09904646128416061,-0.03636661544442177,0.3130459189414978,-0.943858802318573
66c1f778-c986-4529-b453-5f14168643e8,e2ae4576-3aab-436c-b771-98b69ba8b275,1760441602805956537,0.349045,1.554489,-1.775742,-0.007812,-0.618164,0.833008,-0.4657166391272971,-36.73255206880647,-168.20731353934596,0.09876919537782669,-0.036205388605594635,0.313024640083313,-0.9439011216163635
66c1f778-c986-4529-b453-5f14168643e8,e2ae4576-3aab-436c-b771-98b69ba8b275,1760441602815559537,0.349045,1.432419,-1.653671,-0.004883,-0.623047,0.830078,-0.4565899055046358,-36.73039630863944,-168.23513409949172,0.09851563721895218,-0.036052405834198,0.31302350759506226,-0.9439338445663452
66c1f778-c986-4529-b453-5f14168643e8,e2ae4576-3aab-436c-b771-98b69ba8b275,1760441602825162537,0.776291,1.859665,-1.470566,-0.011719,-0.621582,0.818359,-0.44617351015320894,-36.72575167125456,-168.27932086527335,0.09812434762716293,-0.03584201633930206,0.31300804018974304,-0.9439877271652222
66c1f778-c986-4529-b453-5f14168643e8,e2ae4576-3aab-436c-b771-98b69ba8b275,1760441602842760537,0.776291,1.676559,-1.104355,-0.003418,-0.623535,0.839844,-0.4231341220580124,-36.71161477792692,-168.4104129655128,0.09698491543531418,-0.03528241440653801,0.31295183300971985,-0.9441452026367188
66c1f778-c986-4529-b453-5f14168643e8,e2ae4576-3aab-436c-b771-98b69ba8b275,1760441602850757537,0.957489,1.308441,-0.921249,-0.004395,-0.62793,0.835938,-0.4124798723404943,-36.70400457154012,-168.40962158803376,0.09696422517299652,-0.03519050404429436,0.3128978908061981,-0.9441686272621155
66c1f778-c986-4529-b453-5f14168643e8,e2ae4576-3aab-436c-b771-98b69ba8b275,1760441602858754537,1.020432,0.883102,-0.738144,-0.007812,-0.624023,0.832519,-0.40000037514462883,-36.697239792675866,-168.41889663179091,0.09685540944337845,-0.035056766122579575,0.3128555417060852,-0.9441987872123718
66c1f778-c986-4529-b453-5f14168643e8,e2ae4576-3aab-436c-b771-98b69ba8b275,1760441602866751537,0.776291,0.394821,-0.677109,-0.020996,-0.617188,0.832031,-0.38891073873876225,-36.693330856435495,-168.45577581048465,0.09652221947908401,-0.034861475229263306,0.312843918800354,-0.9442440271377563
66c1f778-c986-4529-b453-5f14168643e8,e2ae4576-3aab-436c-b771-98b69ba8b275,1760441602874757537,0.898361,0.333786,-0.677109,-0.008789,-0.62793,0.833984,-0.38392134381485077,-36.695242299289525,-168.4864303419452,0.09625552594661713,-0.034738242626190186,0.3128731846809387,-0.9442660808563232
66c1f778-c986-4529-b453-5f14168643e8,e2ae4576-3aab-436c-b771-98b69ba8b275,1760441602882763537,0.776291,0.089645,-0.371933,-0.009766,-0.620117,0.822266,-0.3793695415710269,-36.696693635024246,-168.51651844732805,0.09599480032920837,-0.0346197709441185,0.31289806962013245,-0.9442887306213379
66c1f778-c986-4529-b453-5f14168643e8,e2ae4576-3aab-436c-b771-98b69ba8b275,1760441602890769537,0.776291,-0.21553,-0.555038,-0.001465,-0.629395,0.822754,-0.3774769812742802,-36.698289276600825,-168.55134789173832,0.09570222347974777,-0.03451037406921387,0.3129233121871948,-0.9443140625953674
66c1f778-c986-4529-b453-5f14168643e8,e2ae4576-3aab-436c-b771-98b69ba8b275,1760441602898775537,0.957489,0.026703,-0.494003,0.00293,-0.619141,0.833008,-0.37371909049501745,-36.69829205576211,-168.58284422344522,0.09543240815401077,-0.03439339995384216,0.3129359483718872,-0.9443414211273193
66c1f778-c986-4529-b453-5f14168643e8,e2ae4576-3aab-436c-b771-98b69ba8b275,1760441602909584537,1.020432,0.02861,-0.249863,-0.001465,-0.615234,0.834961,-0.3727644409889864,-36.695573336098455,-168.61226222871616,0.09518802911043167,-0.034302979707717896,0.3129231333732605,-0.9443736672401428
66c1f778-c986-4529-b453-5f14168643e8,e2ae4576-3aab-436c-b771-98b69ba8b275,1760441602920393537,1.3237,-0.461578,-0.371933,0.003906,-0.611816,0.825195,-0.37562360004342454,-36.68267109236431,-168.6224614039622,0.09511494636535645,-0.03428821265697479,0.31281745433807373,-0.9444165825843811
66c1f778-c986-4529-b453-5f14168643e8,e2ae4576-3aab-436c-b771-98b69ba8b275,1760441602931202537,1.3237,-0.94986,-0.310898,-0.000977,-0.619141,0.81543,-0.38412500943461864,-36.67193936400768,-168.63358911726164,0.09504906833171844,-0.0343191996216774,0.3127252757549286,-0.9444525837898254
66c1f778-c986-4529-b453-5f14168643e8,e2ae4576-3aab-436c-b771-98b69ba8b275,1760441602941722537,1.266479,-1.010895,-0.249863,0.008301,-0.631836,0.823242,-0.4005850002383756,-36.65802827228205,-168.6571464777885,0.09490320086479187,-0.03437931835651398,0.31260401010513306,-0.9445052146911621
66c1f778-c986-4529-b453-5f14168643e8,e2ae4576-3aab-436c-b771-98b69ba8b275,1760441602952242537,1.386642,-1.619339,-0.249863,0.000488,-0.620117,0.832031,-0.4167981356108066,-36.649298639606464,-168.6339328903662,0.09514087438583374,-0.03456920385360718,0.3125116229057312,-0.9445049166679382
66c1f778-c986-4529-b453-5f14168643e8,e2ae4576-3aab-436c-b771-98b69ba8b275,1760441602962762537,1.44577,-1.255035,-0.127792,0.013672,-0.608887,0.824219,-0.4296772809391239,-36.63422285224746,-168.60569867172123,0.09541234374046326,-0.034740105271339417,0.3123680651187897,-0.9445188045501709
