section id,recording id,timestamp [ns],gyro x [deg/s],gyro y [deg/s],gyro z [deg/s],acceleration x [g],acceleration y [g],acceleration z [g],roll [deg],pitch [deg],yaw [deg],quaternion w,quaternion x,quaternion y,quaternion z
4fc4d850-388d-424f-96e9-53a92ea3ea2a,74f062f9-10a4-49e2-ab35-9246e443d047,1760515537330485928,-0.501633,-0.020981,-0.528336,0.000977,-0.514648,0.901855,0.028191365872032297,-29.61346367816303,127.45473225510646,0.42800068855285645,-0.11333487927913666,-0.2290542870759964,0.8668935298919678
4fc4d850-388d-424f-96e9-53a92ea3ea2a,74f062f9-10a4-49e2-ab35-9246e443d047,1760515537341153928,-0.196457,0.4673,-0.22316,0.007812,-0.498047,0.884766,0.026267003797755373,-29.611208786197643,127.43755555072072,0.42812901735305786,-0.11334624886512756,-0.22902743518352509,0.8668357133865356
4fc4d850-388d-424f-96e9-53a92ea3ea2a,74f062f9-10a4-49e2-ab35-9246e443d047,1760515537351821928,-0.013351,0.040054,-0.589371,0.007324,-0.498047,0.880371,0.023147550805249644,-29.61009494520278,127.41277966821758,0.428311288356781,-0.11336800456047058,-0.22900615632534027,0.8667484521865845
4fc4d850-388d-424f-96e9-53a92ea3ea2a,74f062f9-10a4-49e2-ab35-9246e443d047,1760515537360148928,-0.198364,0.102997,-0.471115,0.003418,-0.505371,0.889648,0.021025525049418865,-29.610459137632663,127.38703666012235,0.4285013973712921,-0.1134047657251358,-0.22899137437343597,0.866653561592102
4fc4d850-388d-424f-96e9-53a92ea3ea2a,74f062f9-10a4-49e2-ab35-9246e443d047,1760515537368476928,-0.564575,0.408173,-0.654221,0.005859,-0.50293,0.884277,0.01770418178651365,-29.613824226510907,127.37134341388361,0.4286101162433624,-0.11342358589172363,-0.22901371121406555,0.8665914535522461
4fc4d850-388d-424f-96e9-53a92ea3ea2a,74f062f9-10a4-49e2-ab35-9246e443d047,1760515537376804928,-0.259399,0.347137,-0.894547,-0.005371,-0.513184,0.89209,0.020608042307571312,-29.616170529894248,127.35172439044699,0.42876195907592773,-0.11349352449178696,-0.22900116443634033,0.8665105104446411
4fc4d850-388d-424f-96e9-53a92ea3ea2a,74f062f9-10a4-49e2-ab35-9246e443d047,1760515537385132928,-0.747681,0.408173,-0.837326,-0.000488,-0.511719,0.875977,0.02482008111791763,-29.618615356997037,127.32074973788164,0.42900216579437256,-0.11359641700983047,-0.22897319495677948,0.8663855195045471
4fc4d850-388d-424f-96e9-53a92ea3ea2a,74f062f9-10a4-49e2-ab35-9246e443d047,1760515537394499928,-0.442505,0.408173,-0.528336,0.000977,-0.489746,0.901367,0.023292525498375908,-29.614011516143133,127.28803498231437,0.4292509853839874,-0.11363298445940018,-0.22891166806221008,0.8662737607955933
4fc4d850-388d-424f-96e9-53a92ea3ea2a,74f062f9-10a4-49e2-ab35-9246e443d047,1760515537403866928,-0.442505,0.591278,-0.471115,-0.003906,-0.501953,0.898926,0.02263055584691901,-29.610564121100765,127.23862110322034,0.42962658405303955,-0.11371375620365143,-0.22883906960487366,0.8660961389541626
4fc4d850-388d-424f-96e9-53a92ea3ea2a,74f062f9-10a4-49e2-ab35-9246e443d047,1760515537413233928,-0.318527,0.22316,-0.284195,-0.003418,-0.495605,0.895996,0.02633913074842448,-29.605274448292676,127.16655117862405,0.43018385767936707,-0.11386583000421524,-0.22871361672878265,0.8658326268196106
4fc4d850-388d-424f-96e9-53a92ea3ea2a,74f062f9-10a4-49e2-ab35-9246e443d047,1760515537422600928,-0.38147,0.225067,-0.406265,0.002441,-0.49707,0.892578,0.02819642778403501,-29.604734067470787,127.14993541021876,0.4303136467933655,-0.11391100287437439,-0.22868604958057404,0.8657694458961487
4fc4d850-388d-424f-96e9-53a92ea3ea2a,74f062f9-10a4-49e2-ab35-9246e443d047,1760515537431967928,-0.442505,0.164032,-0.406265,-0.000488,-0.496094,0.885742,0.028100411751775616,-29.603357515973176,127.1414634725864,0.43037882447242737,-0.11392201483249664,-0.22866758704185486,0.8657404780387878
4fc4d850-388d-424f-96e9-53a92ea3ea2a,74f062f9-10a4-49e2-ab35-9246e443d047,1760515537439934928,-0.442505,-0.385284,0.143051,0.002441,-0.495117,0.879883,0.03067384288380834,-29.603684744396052,127.06693730938186,0.43094658851623535,-0.11409137398004532,-0.22858624160289764,0.8654571771621704
4fc4d850-388d-424f-96e9-53a92ea3ea2a,74f062f9-10a4-49e2-ab35-9246e443d047,1760515537447901928,-0.196457,-0.200272,0.204086,0.000977,-0.503906,0.891602,0.028493707462364504,-29.601782375570775,126.97061675990119,0.4316714406013489,-0.11425984650850296,-0.228484109044075,0.865100622177124
4fc4d850-388d-424f-96e9-53a92ea3ea2a,74f062f9-10a4-49e2-ab35-9246e443d047,1760515537455868928,-0.013351,-0.143051,-0.040054,0.010254,-0.503906,0.879883,0.02426415632295899,-29.602937066659116,126.85769190364672,0.43251416087150574,-0.1144573837518692,-0.22839607298374176,0.8646767735481262
4fc4d850-388d-424f-96e9-53a92ea3ea2a,74f062f9-10a4-49e2-ab35-9246e443d047,1760515537463835928,-0.009537,0.146866,0.341415,-0.005859,-0.500488,0.899414,0.024566862018097206,-29.60103267749578,126.76565616231561,0.43321099877357483,-0.11463586986064911,-0.22828856110572815,0.8643326163291931
4fc4d850-388d-424f-96e9-53a92ea3ea2a,74f062f9-10a4-49e2-ab35-9246e443d047,1760515537474503928,-0.375748,-0.28038,0.219345,-0.000488,-0.505859,0.884277,0.02753214599910323,-29.600458758029124,126.67023810368833,0.43393704295158386,-0.1148461103439331,-0.22817747294902802,0.8639697432518005
4fc4d850-388d-424f-96e9-53a92ea3ea2a,74f062f9-10a4-49e2-ab35-9246e443d047,1760515537485171928,-0.558853,-0.15831,0.15831,0.0,-0.500977,0.896484,0.025498858788230366,-29.597308975264305,126.5619881882613,0.43475210666656494,-0.11503433436155319,-0.22805285453796387,0.8635677695274353
4fc4d850-388d-424f-96e9-53a92ea3ea2a,74f062f9-10a4-49e2-ab35-9246e443d047,1760515537495839928,-0.253677,-0.402451,0.15831,0.009766,-0.504883,0.900879,0.024320902806896826,-29.595156836959738,126.4275327895627,0.435764878988266,-0.11528477817773819,-0.2279059886932373,0.8630625605583191
4fc4d850-388d-424f-96e9-53a92ea3ea2a,74f062f9-10a4-49e2-ab35-9246e443d047,1760515537503840928,-0.192642,-0.341415,0.402451,0.00293,-0.488281,0.895996,0.023159282328814302,-29.59051611229626,126.29553508490108,0.43676111102104187,-0.11552080512046814,-0.227742537856102,0.8625704050064087
4fc4d850-388d-424f-96e9-53a92ea3ea2a,74f062f9-10a4-49e2-ab35-9246e443d047,1760515537511841928,-0.312805,-0.461578,0.341415,-0.007324,-0.505859,0.891113,0.02492905569974158,-29.590971580318264,126.15892278655477,0.43779218196868896,-0.11580727994441986,-0.2276013195514679,0.8620464205741882
4fc4d850-388d-424f-96e9-53a92ea3ea2a,74f062f9-10a4-49e2-ab35-9246e443d047,1760515537519842928,-0.253677,0.146866,0.15831,0.001465,-0.502441,0.896973,0.024006061044291975,-29.58659865368521,126.02072575643957,0.4388340711593628,-0.11605799943208694,-0.22743214666843414,0.8615274429321289
4fc4d850-388d-424f-96e9-53a92ea3ea2a,74f062f9-10a4-49e2-ab35-9246e443d047,1760515537527843928,0.053406,-0.038147,-0.085831,0.012695,-0.50293,0.890137,0.023323010044636515,-29.58426483910334,125.88330637523686,0.43986791372299194,-0.11631656438112259,-0.22727788984775543,0.8610059022903442
4fc4d850-388d-424f-96e9-53a92ea3ea2a,74f062f9-10a4-49e2-ab35-9246e443d047,1760515537538505928,0.053406,0.083923,-0.024796,0.004395,-0.508301,0.900391,0.0211983777238412,-29.585093370761925,125.71300628339279,0.4411419630050659,-0.11664144694805145,-0.22711917757987976,0.8603517413139343
4fc4d850-388d-424f-96e9-53a92ea3ea2a,74f062f9-10a4-49e2-ab35-9246e443d047,1760515537549167928,-0.190735,0.572205,0.219345,0.001953,-0.505859,0.889648,0.021519058293892043,-29.58619052305705,125.55077545346653,0.442359060049057,-0.1169695034623146,-0.22696080803871155,0.8597238659858704
4fc4d850-388d-424f-96e9-53a92ea3ea2a,74f062f9-10a4-49e2-ab35-9246e443d047,1760515537559829928,0.055313,-0.15831,-0.146866,0.009277,-0.501953,0.891602,0.01843409736580636,-29.588345555799442,125.40240749221195,0.4434635043144226,-0.11724846065044403,-0.22683726251125336,0.8591493368148804
4fc4d850-388d-424f-96e9-53a92ea3ea2a,74f062f9-10a4-49e2-ab35-9246e443d047,1760515537567824928,-0.007629,-0.099182,0.03624,0.01123,-0.49707,0.894531,0.01944737909811846,-29.586886409474292,125.12059309318563,0.44557857513427734,-0.11780789494514465,-0.22653336822986603,0.8580579161643982
4fc4d850-388d-424f-96e9-53a92ea3ea2a,74f062f9-10a4-49e2-ab35-9246e443d047,1760515537575819928,-0.192642,-0.15831,0.097275,0.017578,-0.509766,0.898926,0.01770364220314181,-29.587113316234685,124.92770920577158,0.447018563747406,-0.11817686259746552,-0.22634324431419373,0.8573080897331238
4fc4d850-388d-424f-96e9-53a92ea3ea2a,74f062f9-10a4-49e2-ab35-9246e443d047,1760515537583814928,-0.192642,-0.15831,-0.268936,0.005371,-0.497559,0.885254,0.016228099353612458,-29.585899088021186,124.82786882267466,0.44776368141174316,-0.11835824698209763,-0.22623687982559204,0.8569222092628479
4fc4d850-388d-424f-96e9-53a92ea3ea2a,74f062f9-10a4-49e2-ab35-9246e443d047,1760515537591809928,0.055313,-0.15831,-0.085831,0.003418,-0.509277,0.892578,0.016220894687879985,-29.58567105578149,124.82786558742232,0.44776391983032227,-0.11835730075836182,-0.22623519599437714,0.8569226861000061
4fc4d850-388d-424f-96e9-53a92ea3ea2a,74f062f9-10a4-49e2-ab35-9246e443d047,1760515537602496928,0.417709,-0.03624,0.03624,0.00293,-0.519531,0.891113,0.013909271944157071,-29.585955764682343,124.82672566063296,0.44776758551597595,-0.11834337562322617,-0.22624517977237701,0.856920063495636
4fc4d850-388d-424f-96e9-53a92ea3ea2a,74f062f9-10a4-49e2-ab35-9246e443d047,1760515537613183928,0.358582,-0.099182,-0.085831,0.015625,-0.499023,0.897949,0.007719836379256745,-29.58265082261879,124.82367092689628,0.44778162240982056,-0.11829021573066711,-0.22624149918556213,0.8569210171699524
4fc4d850-388d-424f-96e9-53a92ea3ea2a,74f062f9-10a4-49e2-ab35-9246e443d047,1760515537623870928,0.543594,0.146866,0.03624,-0.000977,-0.510742,0.884277,0.00705475166865569,-29.58400049678246,124.82334139977077,0.44778138399124146,-0.11829116940498352,-0.22625385224819183,0.8569177389144897
4fc4d850-388d-424f-96e9-53a92ea3ea2a,74f062f9-10a4-49e2-ab35-9246e443d047,1760515537634532928,0.543594,0.329971,0.03624,-0.010742,-0.501953,0.889648,0.009315757834698268,-29.581905984752055,124.82445733070809,0.44777965545654297,-0.11829768121242523,-0.22623050212860107,0.8569239377975464
4fc4d850-388d-424f-96e9-53a92ea3ea2a,74f062f9-10a4-49e2-ab35-9246e443d047,1760515537645195928,0.480652,0.389099,-0.146866,-0.002441,-0.497559,0.878418,0.008396554912650291,-29.581478126086242,124.82400319357822,0.44778168201446533,-0.11829003691673279,-0.2262304276227951,0.8569239377975464
4fc4d850-388d-424f-96e9-53a92ea3ea2a,74f062f9-10a4-49e2-ab35-9246e443d047,1760515537655858928,0.295639,0.207901,0.15831,0.009766,-0.502441,0.887207,0.005897774332690449,-29.580920430669618,124.82277072189473,0.4477865397930145,-0.118271604180336,-0.22623474895954132,0.8569228053092957
4fc4d850-388d-424f-96e9-53a92ea3ea2a,74f062f9-10a4-49e2-ab35-9246e443d047,1760515537663843928,-0.009537,0.146866,-0.085831,0.004883,-0.506348,0.884277,-0.0026595875322711045,-29.583914842086582,124.45391744493803,0.4505225419998169,-0.1189470887184143,-0.22590887546539307,0.8554800152778625
4fc4d850-388d-424f-96e9-53a92ea3ea2a,74f062f9-10a4-49e2-ab35-9246e443d047,1760515537671828928,0.234604,0.146866,0.097275,-0.003418,-0.489746,0.886719,-0.003485205803929402,-29.57797317595794,124.27544980817319,0.45185890793800354,-0.11926919966936111,-0.22568228840827942,0.8547898530960083
4fc4d850-388d-424f-96e9-53a92ea3ea2a,74f062f9-10a4-49e2-ab35-9246e443d047,1760515537679813928,0.295639,-0.03624,-0.085831,-0.001465,-0.49707,0.889648,-0.0030912070826465163,-29.57329640348462,124.07384318585596,0.4533677399158478,-0.11965049803256989,-0.22543568909168243,0.8540023565292358
4fc4d850-388d-424f-96e9-53a92ea3ea2a,74f062f9-10a4-49e2-ab35-9246e443d047,1760515537687798928,-0.070572,-0.03624,-0.268936,-0.00293,-0.506348,0.890625,-0.0023352179131306463,-29.57190951330202,123.82640583189564,0.45521366596221924,-0.12013711780309677,-0.22516347467899323,0.8530233502388
4fc4d850-388d-424f-96e9-53a92ea3ea2a,74f062f9-10a4-49e2-ab35-9246e443d047,1760515537698477928,-0.253677,0.146866,0.219345,0.009277,-0.498047,0.886719,-0.008875267801899074,-29.57192843801809,123.72311053938682,0.45596954226493835,-0.12029144167900085,-0.22508125007152557,0.8526195287704468
4fc4d850-388d-424f-96e9-53a92ea3ea2a,74f062f9-10a4-49e2-ab35-9246e443d047,1760515537709156928,-0.192642,-0.03624,0.28038,0.001465,-0.515625,0.900391,-0.007351590905619322,-29.57088570860666,123.64498714132878,0.4565548002719879,-0.12045203894376755,-0.22498536109924316,0.8523089289665222
4fc4d850-388d-424f-96e9-53a92ea3ea2a,74f062f9-10a4-49e2-ab35-9246e443d047,1760515537719835928,-0.1297,0.144958,0.03624,-0.007324,-0.499023,0.900879,-0.005588347459718109,-29.566121555157384,123.64585786696709,0.4565567970275879,-0.12044446170330048,-0.22494381666183472,0.8523198962211609
4fc4d850-388d-424f-96e9-53a92ea3ea2a,74f062f9-10a4-49e2-ab35-9246e443d047,1760515537730495928,-0.007629,0.267029,-0.024796,-0.005371,-0.497559,0.89209,-0.002629368418059481,-29.564211664311525,123.40369893040763,0.4583647549152374,-0.1209339052438736,-0.22466276586055756,0.8513537645339966
4fc4d850-388d-424f-96e9-53a92ea3ea2a,74f062f9-10a4-49e2-ab35-9246e443d047,1760515537741156928,0.114441,0.389099,-0.085831,0.004395,-0.500488,0.890137,-0.0032187098009178877,-29.566886265671663,123.15662056399516,0.4601953625679016,-0.12142440676689148,-0.22442370653152466,0.8503588438034058
4fc4d850-388d-424f-96e9-53a92ea3ea2a,74f062f9-10a4-49e2-ab35-9246e443d047,1760515537751817928,-0.070572,0.513077,-0.024796,0.005859,-0.506836,0.885742,-0.003926529722257954,-29.56665490757229,122.92737039219307,0.46189451217651367,-0.12186695635318756,-0.22418147325515747,0.8494377136230469
4fc4d850-388d-424f-96e9-53a92ea3ea2a,74f062f9-10a4-49e2-ab35-9246e443d047,1760515537759841928,0.234604,0.268936,-0.024796,0.002441,-0.506836,0.88916,-0.0055594049929739145,-29.563634643714973,122.45426014211951,0.4653976559638977,-0.1227671355009079,-0.22366070747375488,0.8475311398506165
4fc4d850-388d-424f-96e9-53a92ea3ea2a,74f062f9-10a4-49e2-ab35-9246e443d047,1760515537767867928,0.175476,0.144958,-0.207901,0.010742,-0.506348,0.900879,-0.007831001603258569,-29.561069334470613,122.31268507493041,0.466442734003067,-0.12301614135503769,-0.2234991490840912,0.8469629287719727
4fc4d850-388d-424f-96e9-53a92ea3ea2a,74f062f9-10a4-49e2-ab35-9246e443d047,1760515537775893928,0.175476,0.083923,-0.207901,-0.007812,-0.495117,0.892578,-0.005459270444053787,-29.556581780450045,122.18696492015744,0.4673811197280884,-0.1232604831457138,-0.22332122921943665,0.8464568853378296
4fc4d850-388d-424f-96e9-53a92ea3ea2a,74f062f9-10a4-49e2-ab35-9246e443d047,1760515537783919928,0.234604,0.146866,-0.391006,0.003906,-0.493652,0.896973,-0.007964299790646459,-29.553223606487304,121.9561845772437,0.46908363699913025,-0.12367776036262512,-0.22305801510810852,0.8455231189727783
4fc4d850-388d-424f-96e9-53a92ea3ea2a,74f062f9-10a4-49e2-ab35-9246e443d047,1760515537794571928,0.295639,0.146866,-0.329971,0.000488,-0.512695,0.891602,-0.008023612076870877,-29.54943866399788,121.7349884754076,0.4707188606262207,-0.12409210950136185,-0.22279120981693268,0.8446235060691833
4fc4d850-388d-424f-96e9-53a92ea3ea2a,74f062f9-10a4-49e2-ab35-9246e443d047,1760515537805223928,0.417709,0.024796,-0.268936,0.005371,-0.501953,0.895508,-0.010390824542957654,-29.545841763206084,121.54315539422434,0.4721314609050751,-0.12443264573812485,-0.2225664258003235,0.8438438773155212
4fc4d850-388d-424f-96e9-53a92ea3ea2a,74f062f9-10a4-49e2-ab35-9246e443d047,1760515537815875928,0.053406,-0.038147,-0.146866,-0.00293,-0.498047,0.888672,-0.010671605129818497,-29.541361769763608,121.31935405796578,0.4737829566001892,-0.12484649568796158,-0.22229118645191193,0.8429291844367981
4fc4d850-388d-424f-96e9-53a92ea3ea2a,74f062f9-10a4-49e2-ab35-9246e443d047,1760515537826523928,-0.070572,0.268936,0.097275,-0.00293,-0.495117,0.88623,-0.011434161916101342,-29.54278764848074,121.20528913164571,0.47461873292922974,-0.12506799399852753,-0.22218044102191925,0.842455267906189
4fc4d850-388d-424f-96e9-53a92ea3ea2a,74f062f9-10a4-49e2-ab35-9246e443d047,1760515537837173928,-0.312805,0.083923,-0.085831,0.005371,-0.508789,0.887695,-0.011229699305547056,-29.542502666676132,120.95329889451764,0.4764708876609802,-0.1255566030740738,-0.22190193831920624,0.8414098024368286
4fc4d850-388d-424f-96e9-53a92ea3ea2a,74f062f9-10a4-49e2-ab35-9246e443d047,1760515537847823928,-0.37384,0.083923,-0.207901,0.004883,-0.502441,0.89209,-0.012723016036786473,-29.544413618631346,120.76602237850996,0.4778403639793396,-0.12591609358787537,-0.22171668708324432,0.8406279683113098
4fc4d850-388d-424f-96e9-53a92ea3ea2a,74f062f9-10a4-49e2-ab35-9246e443d047,1760515537858495928,-0.801086,0.144958,-0.146866,-0.00293,-0.508789,0.890137,-0.012411853217147339,-29.54530598205959,120.34573063146807,0.4809199571609497,-0.12673446536064148,-0.22125859558582306,0.8388676643371582
4fc4d850-388d-424f-96e9-53a92ea3ea2a,74f062f9-10a4-49e2-ab35-9246e443d047,1760515537869167928,-1.167297,0.267029,0.097275,-0.01123,-0.505371,0.901855,-0.010365440319529256,-29.545044506192145,120.155941006722,0.4823128879070282,-0.12711460888385773,-0.2210378646850586,0.8380682468414307
4fc4d850-388d-424f-96e9-53a92ea3ea2a,74f062f9-10a4-49e2-ab35-9246e443d047,1760515537879839928,-1.23024,0.268936,-0.146866,0.002441,-0.508789,0.888184,-0.01065023333219869,-29.54669394694475,120.01865356905117,0.4833142161369324,-0.127384215593338,-0.22089867293834686,0.8374869227409363
4fc4d850-388d-424f-96e9-53a92ea3ea2a,74f062f9-10a4-49e2-ab35-9246e443d047,1760515537890490928,-0.984192,0.209808,-0.085831,-0.002441,-0.508789,0.888184,-0.009552538098306727,-29.552173294498097,119.79600634670899,0.48493650555610657,-0.12784437835216522,-0.22068610787391663,0.8365345001220703
4fc4d850-388d-424f-96e9-53a92ea3ea2a,74f062f9-10a4-49e2-ab35-9246e443d047,1760515537901141928,-1.047134,0.207901,0.03624,-0.000488,-0.508789,0.893066,-0.012509317779816445,-29.55273240007651,119.56338282328333,0.48662737011909485,-0.1282729208469391,-0.2204427570104599,0.8355506062507629
4fc4d850-388d-424f-96e9-53a92ea3ea2a,74f062f9-10a4-49e2-ab35-9246e443d047,1760515537911792928,-0.741959,-0.03624,-0.085831,-0.00293,-0.5,0.897949,-0.007316956786054729,-29.55065325521914,119.33966438861195,0.48827001452445984,-0.12873201072216034,-0.22015464305877686,0.834597110748291
4fc4d850-388d-424f-96e9-53a92ea3ea2a,74f062f9-10a4-49e2-ab35-9246e443d047,1760515537919804928,-0.680923,-0.15831,-0.207901,-0.005371,-0.510254,0.890137,-0.007430551147709767,-29.555698234924183,118.84443519731649,0.4918663799762726,-0.1297030746936798,-0.21963338553905487,0.832469642162323
4fc4d850-388d-424f-96e9-53a92ea3ea2a,74f062f9-10a4-49e2-ab35-9246e443d047,1760515537927817928,-0.495911,-0.278473,0.097275,0.007813,-0.52002,0.898926,-0.01004783528851479,-29.557000016113843,118.62385692354583,0.49346140027046204,-0.13011221587657928,-0.21940402686595917,0.8315218091011047
4fc4d850-388d-424f-96e9-53a92ea3ea2a,74f062f9-10a4-49e2-ab35-9246e443d047,1760515537935830928,-0.495911,-0.038147,-0.146866,0.0,-0.515625,0.900391,-0.006817440772807858,-29.559613699428887,118.42887746571101,0.49487873911857605,-0.1305200606584549,-0.21918731927871704,0.8306722640991211
4fc4d850-388d-424f-96e9-53a92ea3ea2a,74f062f9-10a4-49e2-ab35-9246e443d047,1760515537943843928,-0.192642,-0.03624,-0.329971,-0.01416,-0.507324,0.893066,-0.001899908054090629,-29.563416194568024,118.26100592077134,0.49610015749931335,-0.13089309632778168,-0.2190021276473999,0.8299335241317749
4fc4d850-388d-424f-96e9-53a92ea3ea2a,74f062f9-10a4-49e2-ab35-9246e443d047,1760515537954513928,-0.192642,0.024796,-0.329971,-0.012695,-0.512695,0.887695,0.0009171148104179262,-29.565195887233045,118.04471886591834,0.4976690709590912,-0.1313343197107315,-0.2187553197145462,0.8289890885353088
4fc4d850-388d-424f-96e9-53a92ea3ea2a,74f062f9-10a4-49e2-ab35-9246e443d047,1760515537965183928,-0.375748,-0.15831,-0.024796,0.003418,-0.492676,0.896973,-0.0029741201899737154,-29.561866685087146,117.84607004139863,0.49910181760787964,-0.1316707283258438,-0.21852020919322968,0.8281359076499939
4fc4d850-388d-424f-96e9-53a92ea3ea2a,74f062f9-10a4-49e2-ab35-9246e443d047,1760515537975853928,-0.007629,-0.278473,-0.268936,-0.005371,-0.501465,0.883301,0.00020889845116617143,-29.56261513405006,117.68936792928828,0.5002390146255493,-0.13199567794799805,-0.2183314561843872,0.8274475336074829
4fc4d850-388d-424f-96e9-53a92ea3ea2a,74f062f9-10a4-49e2-ab35-9246e443d047,1760515537986503928,-0.190735,-0.709534,0.15831,-0.000977,-0.496094,0.880371,0.0011780693899681042,-29.563209273813328,117.56575229864437,0.5011324882507324,-0.13224071264266968,-0.21818898618221283,0.8269051909446716
4fc4d850-388d-424f-96e9-53a92ea3ea2a,74f062f9-10a4-49e2-ab35-9246e443d047,1760515537997154928,0.055313,-0.463486,0.463486,-0.000488,-0.494629,0.889648,0.001291700542799907,-29.56173107841906,117.31357785353363,0.5029529333114624,-0.1327148973941803,-0.2178862988948822,0.8258029818534851
4fc4d850-388d-424f-96e9-53a92ea3ea2a,74f062f9-10a4-49e2-ab35-9246e443d047,1760515538007805928,0.358582,-0.404358,0.219345,0.006836,-0.505371,0.893066,-0.0006662819858305807,-29.55951469599842,117.0971323668819,0.5045107007026672,-0.13310235738754272,-0.2176278978586197,0.8248580098152161
4fc4d850-388d-424f-96e9-53a92ea3ea2a,74f062f9-10a4-49e2-ab35-9246e443d047,1760515538018485928,0.297546,-0.221252,0.28038,-0.008789,-0.492188,0.885742,0.0011684646733607729,-29.55588642971228,116.69102574645034,0.5074384808540344,-0.13386987149715424,-0.21712063252925873,0.82306969165802
4fc4d850-388d-424f-96e9-53a92ea3ea2a,74f062f9-10a4-49e2-ab35-9246e443d047,1760515538029165928,0.175476,0.267029,0.15831,-0.001953,-0.492676,0.885254,7.183626169893912e-05,-29.55506785273429,116.46688637416906,0.5090463161468506,-0.13428281247615814,-0.21685737371444702,0.8220783472061157
4fc4d850-388d-424f-96e9-53a92ea3ea2a,74f062f9-10a4-49e2-ab35-9246e443d047,1760515538039845928,0.234604,0.268936,-0.024796,0.01123,-0.495117,0.895508,-0.0028491960207066994,-29.553060152273343,116.29087023298047,0.5103052854537964,-0.13458587229251862,-0.21664947271347046,0.8213027119636536
4fc4d850-388d-424f-96e9-53a92ea3ea2a,74f062f9-10a4-49e2-ab35-9246e443d047,1760515538050498928,0.295639,0.696182,-0.085831,0.005859,-0.512695,0.898926,-0.004166176381750239,-29.55177169563095,116.1897133491421,0.5110291242599487,-0.13476188480854034,-0.21652722358703613,0.8208559155464172
4fc4d850-388d-424f-96e9-53a92ea3ea2a,74f062f9-10a4-49e2-ab35-9246e443d047,1760515538061151928,0.297546,0.572205,0.03624,0.005859,-0.499023,0.909668,-0.00692772787438162,-29.547805358299076,115.97695238835,0.5125517845153809,-0.13512617349624634,-0.2162606120109558,0.8199164271354675
4fc4d850-388d-424f-96e9-53a92ea3ea2a,74f062f9-10a4-49e2-ab35-9246e443d047,1760515538071804928,0.541687,0.450134,-0.513077,0.002441,-0.50293,0.88916,-0.008088030681857516,-29.547406029648233,115.75481621410846,0.5141385197639465,-0.13553506135940552,-0.21600061655044556,0.8189234137535095
4fc4d850-388d-424f-96e9-53a92ea3ea2a,74f062f9-10a4-49e2-ab35-9246e443d047,1760515538082485928,0.478745,0.329971,-0.329971,-0.003906,-0.497559,0.885254,-0.011350922976303222,-29.541430089346544,115.4830166668552,0.5160804390907288,-0.13599681854248047,-0.21565058827400208,0.8177167177200317
4fc4d850-388d-424f-96e9-53a92ea3ea2a,74f062f9-10a4-49e2-ab35-9246e443d047,1760515538093165928,0.480652,0.572205,-0.696182,-0.008301,-0.501953,0.891602,-0.011498084176024152,-29.542609959853362,115.31574052679996,0.517271876335144,-0.1363157480955124,-0.2154609113931656,0.8169604539871216
4fc4d850-388d-424f-96e9-53a92ea3ea2a,74f062f9-10a4-49e2-ab35-9246e443d047,1760515538103845928,0.543594,0.635147,-0.818253,-0.008789,-0.496094,0.88916,-0.00933222235617514,-29.538364872993338,115.13918237160699,0.5185396671295166,-0.13664457201957703,-0.21521081030368805,0.8161647915840149
4fc4d850-388d-424f-96e9-53a92ea3ea2a,74f062f9-10a4-49e2-ab35-9246e443d047,1760515538111845928,0.055313,0.818253,-0.757217,-0.007812,-0.502441,0.884277,-0.00335539472688419,-29.533952370223407,114.97264372549505,0.5197417140007019,-0.13697963953018188,-0.2149534672498703,0.8154117465019226
4fc4d850-388d-424f-96e9-53a92ea3ea2a,74f062f9-10a4-49e2-ab35-9246e443d047,1760515538119846928,-0.070572,0.268936,-0.757217,0.003418,-0.5,0.893066,-0.0016114636782036554,-29.533311393717025,114.83288780826356,0.5207397937774658,-0.1372511088848114,-0.2147737443447113,0.8147766590118408
4fc4d850-388d-424f-96e9-53a92ea3ea2a,74f062f9-10a4-49e2-ab35-9246e443d047,1760515538127847928,-0.253677,0.452042,-0.818253,-0.007324,-0.495605,0.899414,0.00121549335567254,-29.52810669580484,114.62971357359676,0.5221951007843018,-0.1376279890537262,-0.2144801914691925,0.813858687877655
4fc4d850-388d-424f-96e9-53a92ea3ea2a,74f062f9-10a4-49e2-ab35-9246e443d047,1760515538135848928,-0.432968,0.207901,-0.391006,-0.013184,-0.508789,0.887695,0.0073177408694279425,-29.52945369117498,114.42926695237072,0.5236276388168335,-0.13805228471755981,-0.21422076225280762,0.8129345774650574
4fc4d850-388d-424f-96e9-53a92ea3ea2a,74f062f9-10a4-49e2-ab35-9246e443d047,1760515538143836928,-0.434875,0.267029,-0.146866,-0.019531,-0.505371,0.887695,0.01347621492782585,-29.52793851763024,114.31881473160031,0.5244242548942566,-0.13829536736011505,-0.21404865384101868,0.8124251365661621
4fc4d850-388d-424f-96e9-53a92ea3ea2a,74f062f9-10a4-49e2-ab35-9246e443d047,1760515538151824928,-0.617981,0.144958,-0.146866,-0.001465,-0.492676,0.893066,0.017510076849947733,-29.527018929766925,114.19139480418855,0.5253359079360962,-0.13855759799480438,-0.21386972069740295,0.8118385672569275
4fc4d850-388d-424f-96e9-53a92ea3ea2a,74f062f9-10a4-49e2-ab35-9246e443d047,1760515538159812928,-1.047134,-0.28038,0.28038,-0.011719,-0.5,0.88916,0.020191827268423307,-29.52676740681953,114.02396233930908,0.5265268087387085,-0.1388877034187317,-0.21365292370319366,0.8110675811767578
4fc4d850-388d-424f-96e9-53a92ea3ea2a,74f062f9-10a4-49e2-ab35-9246e443d047,1760515538175813928,-1.169205,-0.28038,0.341415,0.003906,-0.495605,0.896484,0.025562865904568376,-29.52389713185173,113.66855822672228,0.5290532112121582,-0.13957427442073822,-0.21317604184150696,0.8094298243522644
4fc4d850-388d-424f-96e9-53a92ea3ea2a,74f062f9-10a4-49e2-ab35-9246e443d047,1760515538183829928,-1.169205,-0.15831,0.585556,-0.005859,-0.503906,0.89209,0.026763415312087264,-29.529601523627708,113.45417825631657,0.5305618047714233,-0.1400076299905777,-0.2129492163658142,0.8084269165992737
4fc4d850-388d-424f-96e9-53a92ea3ea2a,74f062f9-10a4-49e2-ab35-9246e443d047,1760515538191845928,-1.289368,-0.526428,0.890732,0.012207,-0.509766,0.895508,0.02574889054691323,-29.541717567407733,113.25773720509964,0.531930148601532,-0.14042147994041443,-0.21279896795749664,0.8074952363967896
4fc4d850-388d-424f-96e9-53a92ea3ea2a,74f062f9-10a4-49e2-ab35-9246e443d047,1760515538199861928,-1.23024,-0.524521,0.646591,-0.010254,-0.510742,0.888672,0.028403115562002416,-29.547869539794316,113.06336261491258,0.5332964658737183,-0.14082953333854675,-0.21259142458438873,0.8065771460533142
4fc4d850-388d-424f-96e9-53a92ea3ea2a,74f062f9-10a4-49e2-ab35-9246e443d047,1760515538210527928,-1.228333,-0.099182,0.524521,-0.004883,-0.51416,0.896973,0.030367594046800662,-29.548578257820218,112.93678914339417,0.5341898202896118,-0.14108137786388397,-0.21243156492710114,0.8059839010238647
4fc4d850-388d-424f-96e9-53a92ea3ea2a,74f062f9-10a4-49e2-ab35-9246e443d047,1760515538221193928,-0.616074,-0.646591,0.585556,-0.011719,-0.505371,0.88916,0.0335390293212484,-29.547458393815663,112.79534127282069,0.535191535949707,-0.14136053621768951,-0.21223457157611847,0.8053221106529236
4fc4d850-388d-424f-96e9-53a92ea3ea2a,74f062f9-10a4-49e2-ab35-9246e443d047,1760515538231859928,-0.679016,-0.892639,0.524521,-0.011719,-0.513184,0.889648,0.03862222426428668,-29.545930363898858,112.61946216064685,0.5364382266998291,-0.1417146474123001,-0.2119828313589096,0.8044962882995605
4fc4d850-388d-424f-96e9-53a92ea3ea2a,74f062f9-10a4-49e2-ab35-9246e443d047,1760515538239857928,-0.312805,-1.075745,0.219345,0.01123,-0.505371,0.901855,0.035763750882333946,-29.542263191485123,112.52000907952905,0.5371354818344116,-0.14186133444309235,-0.2118474245071411,0.8040407299995422
4fc4d850-388d-424f-96e9-53a92ea3ea2a,74f062f9-10a4-49e2-ab35-9246e443d047,1760515538247854928,-0.558853,-1.134872,0.524521,-0.00293,-0.497559,0.892578,0.03960679305284717,-29.543234087623425,112.39023769387458,0.5380516052246094,-0.1421326845884323,-0.21167540550231934,0.8034252524375916
4fc4d850-388d-424f-96e9-53a92ea3ea2a,74f062f9-10a4-49e2-ab35-9246e443d047,1760515538255851928,-0.495911,-1.38092,0.219345,-0.013672,-0.504883,0.902832,0.03640715845450016,-29.542495349644014,112.19860764068112,0.539389431476593,-0.14246059954166412,-0.2114473134279251,0.8025296330451965
4fc4d850-388d-424f-96e9-53a92ea3ea2a,74f062f9-10a4-49e2-ab35-9246e443d047,1760515538263848928,-0.558853,-0.829697,0.646591,0.019043,-0.504883,0.887207,0.021081347668718213,-29.547230977938547,112.00272533855022,0.540726363658905,-0.1427370011806488,-0.21130894124507904,0.8016166687011719
4fc4d850-388d-424f-96e9-53a92ea3ea2a,74f062f9-10a4-49e2-ab35-9246e443d047,1760515538274504928,-0.253677,-0.646591,0.341415,0.009277,-0.513184,0.899902,0.016171347643975553,-29.548172552895387,111.80168462730661,0.5421217083930969,-0.14307770133018494,-0.21108801662921906,0.8006709814071655
4fc4d850-388d-424f-96e9-53a92ea3ea2a,74f062f9-10a4-49e2-ab35-9246e443d047,1760515538285160928,-0.312805,-0.587463,0.524521,-0.013184,-0.524414,0.900391,0.01907555644295235,-29.549297543955248,111.60772822291557,0.5434800982475281,-0.14346042275428772,-0.2108396291732788,0.7997463941574097
4fc4d850-388d-424f-96e9-53a92ea3ea2a,74f062f9-10a4-49e2-ab35-9246e443d047,1760515538295816928,-0.495911,-0.404358,0.646591,0.003418,-0.506836,0.891602,0.01952349539565602,-29.54574256834953,111.4163980951085,0.5448199510574341,-0.14379851520061493,-0.21057289838790894,0.7988436818122864
4fc4d850-388d-424f-96e9-53a92ea3ea2a,74f062f9-10a4-49e2-ab35-9246e443d047,1760515538306474928,-0.312805,-0.709534,0.646591,0.003906,-0.494629,0.892578,0.019353836245200956,-29.545543126906196,111.22938469853426,0.5461229085922241,-0.14413990080356598,-0.21033737063407898,0.7979538440704346
4fc4d850-388d-424f-96e9-53a92ea3ea2a,74f062f9-10a4-49e2-ab35-9246e443d047,1760515538317132928,-0.312805,-0.461578,0.585556,0.009277,-0.490234,0.899414,0.015799065064021872,-29.54212648718553,111.13344429351653,0.5467885732650757,-0.14427492022514343,-0.21020980179309845,0.7975070476531982
4fc4d850-388d-424f-96e9-53a92ea3ea2a,74f062f9-10a4-49e2-ab35-9246e443d047,1760515538327790928,-0.253677,-1.012802,0.768661,-0.004883,-0.509277,0.894531,0.01834156132832539,-29.540096831342325,110.99723465378499,0.5477433800697327,-0.1445326954126358,-0.21001189947128296,0.7968569397926331
4fc4d850-388d-424f-96e9-53a92ea3ea2a,74f062f9-10a4-49e2-ab35-9246e443d047,1760515538335800928,-0.1297,-0.587463,0.829697,-0.002441,-0.493652,0.875,0.015618421808468818,-29.538312606359014,110.63077568851887,0.5502862334251404,-0.1451762169599533,-0.20954933762550354,0.7951074838638306
4fc4d850-388d-424f-96e9-53a92ea3ea2a,74f062f9-10a4-49e2-ab35-9246e443d047,1760515538343812928,-0.375748,-0.646591,1.134872,0.001953,-0.507324,0.888672,0.02130352799332506,-29.5376839330046,110.51353086633954,0.5511106848716736,-0.14542700350284576,-0.2093690037727356,0.7945377230644226
4fc4d850-388d-424f-96e9-53a92ea3ea2a,74f062f9-10a4-49e2-ab35-9246e443d047,1760515538351824928,-0.190735,-0.709534,0.951767,-0.007324,-0.48877,0.877441,0.022340583269853595,-29.54215590500163,110.3330927072046,0.5523573756217957,-0.1457853466272354,-0.2091657519340515,0.7936590313911438
4fc4d850-388d-424f-96e9-53a92ea3ea2a,74f062f9-10a4-49e2-ab35-9246e443d047,1760515538359836928,-0.190735,-1.075745,1.317978,-0.00293,-0.503418,0.888184,0.021599648944466487,-29.54399020872393,110.15463132626124,0.5535891056060791,-0.1461147665977478,-0.20895475149154663,0.7927950024604797
4fc4d850-388d-424f-96e9-53a92ea3ea2a,74f062f9-10a4-49e2-ab35-9246e443d047,1760515538367846928,-0.741959,-0.646591,1.623154,-0.010742,-0.508789,0.876465,0.025058904077379374,-29.55307716433775,109.98223594443449,0.5547760128974915,-0.14649705588817596,-0.20878079533576965,0.7919394969940186
4fc4d850-388d-424f-96e9-53a92ea3ea2a,74f062f9-10a4-49e2-ab35-9246e443d047,1760515538375856928,-0.864029,-1.012802,2.416611,-0.004883,-0.489258,0.89209,0.036053894508808075,-29.559280755213386,109.86267687356516,0.5556135773658752,-0.14681990444660187,-0.2086171805858612,0.791338324546814
4fc4d850-388d-424f-96e9-53a92ea3ea2a,74f062f9-10a4-49e2-ab35-9246e443d047,1760515538383866928,-1.169205,-0.646591,3.026962,-0.002441,-0.510742,0.885742,0.053218476752626545,-29.575722607977802,109.74274763918568,0.556451678276062,-0.1472364217042923,-0.20849353075027466,0.7907043695449829
4fc4d850-388d-424f-96e9-53a92ea3ea2a,74f062f9-10a4-49e2-ab35-9246e443d047,1760515538391876928,-1.409531,-0.463486,3.515244,-0.013672,-0.505859,0.889648,0.07439281938319525,-29.586237778913684,109.61148269584048,0.5573821067810059,-0.14767228066921234,-0.20829425752162933,0.7900199294090271
4fc4d850-388d-424f-96e9-53a92ea3ea2a,74f062f9-10a4-49e2-ab35-9246e443d047,1760515538402539928,-0.984192,-0.709534,4.308701,-0.020508,-0.507812,0.904297,0.10045830023773326,-29.59398391000924,109.58744816467915,0.5575852394104004,-0.14793328940868378,-0.20818985998630524,0.7898553013801575
4fc4d850-388d-424f-96e9-53a92ea3ea2a,74f062f9-10a4-49e2-ab35-9246e443d047,1760515538413202928,-1.23024,0.146866,5.163193,-0.005371,-0.495117,0.902344,0.12885877282612987,-29.60339238551244,109.57872065871275,0.5576849579811096,-0.14819064736366272,-0.20810525119304657,0.7897589206695557
4fc4d850-388d-424f-96e9-53a92ea3ea2a,74f062f9-10a4-49e2-ab35-9246e443d047,1760515538423865928,-1.23024,-0.28038,5.102158,0.003418,-0.511719,0.882812,0.15360961694955902,-29.61437122894692,109.45346655881669,0.5585787296295166,-0.1486419290304184,-0.20789813995361328,0.7890967726707458
4fc4d850-388d-424f-96e9-53a92ea3ea2a,74f062f9-10a4-49e2-ab35-9246e443d047,1760515538434521928,-0.862122,-0.221252,5.224228,0.007324,-0.504883,0.90332,0.17847895198399555,-29.62228033888254,109.33853305254682,0.5594048500061035,-0.14906005561351776,-0.20768199861049652,0.7884894013404846
4fc4d850-388d-424f-96e9-53a92ea3ea2a,74f062f9-10a4-49e2-ab35-9246e443d047,1760515538445176928,-0.741959,-0.524521,5.041122,-0.015625,-0.512695,0.895508,0.20514251646535556,-29.63051563018911,109.26154548351884,0.5599722266197205,-0.14942313730716705,-0.20750819146633148,0.7880635261535645
4fc4d850-388d-424f-96e9-53a92ea3ea2a,74f062f9-10a4-49e2-ab35-9246e443d047,1760515538455831928,-0.741959,-1.012802,4.858017,-0.00293,-0.513672,0.890137,0.2257340454167669,-29.638292531494233,109.11548942993257,0.5610035061836243,-0.1498669981956482,-0.20727023482322693,0.7873080372810364
4fc4d850-388d-424f-96e9-53a92ea3ea2a,74f062f9-10a4-49e2-ab35-9246e443d047,1760515538466485928,-0.375748,-1.195908,4.369736,-0.006348,-0.504395,0.90332,0.24868823904323112,-29.650364092516188,108.84943147114174,0.5628558993339539,-0.15056447684764862,-0.20689183473587036,0.7859511971473694
4fc4d850-388d-424f-96e9-53a92ea3ea2a,74f062f9-10a4-49e2-ab35-9246e443d047,1760515538477137928,-0.432968,-1.440048,4.18663,-0.001465,-0.504883,0.901367,0.2559354304402779,-29.651915385582527,108.77317293340421,0.5633898973464966,-0.15075942873954773,-0.20676660537719727,0.7855640649795532
4fc4d850-388d-424f-96e9-53a92ea3ea2a,74f062f9-10a4-49e2-ab35-9246e443d047,1760515538487789928,-0.312805,-1.926422,3.759384,0.009766,-0.500977,0.896973,0.2491514951572376,-29.65382524502502,108.67623620513169,0.5640395283699036,-0.15089717507362366,-0.20668548345565796,0.7850927114486694
4fc4d850-388d-424f-96e9-53a92ea3ea2a,74f062f9-10a4-49e2-ab35-9246e443d047,1760515538495798928,-0.068665,-2.235413,2.843857,0.011719,-0.503906,0.888184,0.2378288788292287,-29.65337763184021,108.5464373895567,0.5649086236953735,-0.15105149149894714,-0.20656718313694,0.7844690084457397
4fc4d850-388d-424f-96e9-53a92ea3ea2a,74f062f9-10a4-49e2-ab35-9246e443d047,1760515538503809928,-0.007629,-2.357483,2.965927,0.010254,-0.50293,0.892578,0.2273567643191376,-29.64998719103604,108.44125909617834,0.5656139254570007,-0.15115267038345337,-0.20645692944526672,0.7839701771736145
4fc4d850-388d-424f-96e9-53a92ea3ea2a,74f062f9-10a4-49e2-ab35-9246e443d047,1760515538511820928,-0.070572,-2.599716,2.660751,0.020996,-0.504395,0.888184,0.21095311283450166,-29.64907764088607,108.37897122308398,0.5660116076469421,-0.15114820003509521,-0.20644953846931458,0.7836859226226807
4fc4d850-388d-424f-96e9-53a92ea3ea2a,74f062f9-10a4-49e2-ab35-9246e443d047,1760515538519831928,-0.253677,-2.477646,2.355576,0.000488,-0.51416,0.897949,0.1987452281745607,-29.650804817510174,108.24389064496307,0.5669108033180237,-0.1513165682554245,-0.20634342730045319,0.783031165599823
4fc4d850-388d-424f-96e9-53a92ea3ea2a,74f062f9-10a4-49e2-ab35-9246e443d047,1760515538530534928,-0.192642,-2.416611,2.233505,0.00293,-0.503906,0.886719,0.1873686035133352,-29.654294138213707,108.11472786959497,0.5677680373191833,-0.15148864686489105,-0.20625294744968414,0.782400369644165
4fc4d850-388d-424f-96e9-53a92ea3ea2a,74f062f9-10a4-49e2-ab35-9246e443d047,1760515538541237928,-0.432968,-2.599716,2.477646,-0.001953,-0.508789,0.878418,0.17402577915435755,-29.659476563025716,108.00868710188142,0.5684610605239868,-0.15161408483982086,-0.20621424913406372,0.7818828821182251
4fc4d850-388d-424f-96e9-53a92ea3ea2a,74f062f9-10a4-49e2-ab35-9246e443d047,1760515538551940928,-0.558853,-2.599716,2.477646,-0.009277,-0.503906,0.882812,0.16497414851484746,-29.664794115851365,107.8915382126944,0.5692368745803833,-0.15178948640823364,-0.20614038407802582,0.7813037037849426
4fc4d850-388d-424f-96e9-53a92ea3ea2a,74f062f9-10a4-49e2-ab35-9246e443d047,1760515538562592928,-1.167297,-2.235413,2.477646,0.00293,-0.508789,0.884277,0.1489761732367976,-29.685366805350224,107.61797664987536,0.5710447430610657,-0.1522747129201889,-0.2059972584247589,0.7799265384674072
4fc4d850-388d-424f-96e9-53a92ea3ea2a,74f062f9-10a4-49e2-ab35-9246e443d047,1760515538573247928,-1.409531,-1.989365,2.416611,0.010254,-0.51416,0.887695,0.1411252855944771,-29.700975330858515,107.49350369777368,0.5718569755554199,-0.15252281725406647,-0.20597711205482483,0.7792879939079285
4fc4d850-388d-424f-96e9-53a92ea3ea2a,74f062f9-10a4-49e2-ab35-9246e443d047,1760515538583902928,-1.106262,-1.564026,2.17247,0.001465,-0.509766,0.897461,0.134158648496352,-29.711043131008196,107.39312164538548,0.5725136399269104,-0.1527061015367508,-0.205946683883667,0.7787778377532959
4fc4d850-388d-424f-96e9-53a92ea3ea2a,74f062f9-10a4-49e2-ab35-9246e443d047,1760515538594556928,-1.045227,-1.747131,1.623154,0.009277,-0.515625,0.882812,0.12398200487128805,-29.724779834367606,107.25982751754329,0.5733827352523804,-0.1529451459646225,-0.20591315627098083,0.7781000733375549
4fc4d850-388d-424f-96e9-53a92ea3ea2a,74f062f9-10a4-49e2-ab35-9246e443d047,1760515538605212928,-1.047134,-1.379013,1.379013,-0.000977,-0.494629,0.891602,0.11299242306502616,-29.733569681022715,107.1569658049809,0.5740495920181274,-0.15309934318065643,-0.2058905065059662,0.7775838971138
4fc4d850-388d-424f-96e9-53a92ea3ea2a,74f062f9-10a4-49e2-ab35-9246e443d047,1760515538615868928,-0.741959,-1.623154,1.195908,-0.000977,-0.501953,0.894531,0.10361399063001354,-29.73958784965039,107.1056485284918,0.5743729472160339,-0.1531580686569214,-0.20590977370738983,0.777328372001648
4fc4d850-388d-424f-96e9-53a92ea3ea2a,74f062f9-10a4-49e2-ab35-9246e443d047,1760515538623850928,-0.434875,-1.564026,0.890732,0.010742,-0.503418,0.893066,0.07878721997842315,-29.746224517695143,106.84896286340872,0.5760593414306641,-0.15348412096500397,-0.2057359516620636,0.7760611772537231
4fc4d850-388d-424f-96e9-53a92ea3ea2a,74f062f9-10a4-49e2-ab35-9246e443d047,1760515538631830928,-0.558853,-1.623154,0.28038,0.013184,-0.513184,0.889648,0.05868625361955257,-29.75136955910776,106.69045130953313,0.5770893692970276,-0.15365846455097198,-0.20565949380397797,0.7752813100814819
4fc4d850-388d-424f-96e9-53a92ea3ea2a,74f062f9-10a4-49e2-ab35-9246e443d047,1760515538639810928,-0.432968,-1.928329,0.15831,0.011719,-0.513184,0.886719,0.03825988350330813,-29.758704281040053,106.53267133631246,0.578109860420227,-0.15384043753147125,-0.20560036599636078,0.7745001912117004
4fc4d850-388d-424f-96e9-53a92ea3ea2a,74f062f9-10a4-49e2-ab35-9246e443d047,1760515538647790928,-0.616074,-1.806259,0.15831,0.009277,-0.504883,0.890625,0.020330263594363247,-29.76138828557127,106.38081810668554,0.5790999531745911,-0.1540052592754364,-0.20550505816936493,0.7737526893615723
4fc4d850-388d-424f-96e9-53a92ea3ea2a,74f062f9-10a4-49e2-ab35-9246e443d047,1760515538658471928,-0.558853,-1.440048,0.219345,0.001953,-0.516602,0.893066,0.005447636826938888,-29.769012227341587,106.20607414258069,0.5802422761917114,-0.1542566865682602,-0.20539675652980804,0.7728750705718994
4fc4d850-388d-424f-96e9-53a92ea3ea2a,74f062f9-10a4-49e2-ab35-9246e443d047,1760515538669152928,-0.864029,-1.317978,0.28038,0.007324,-0.503418,0.884766,-0.000253036484222621,-29.775016374931703,106.08345063144473,0.5810506939888,-0.15446843206882477,-0.2053009420633316,0.7722505927085876
4fc4d850-388d-424f-96e9-53a92ea3ea2a,74f062f9-10a4-49e2-ab35-9246e443d047,1760515538679833928,-1.35231,-1.195908,0.097275,0.005859,-0.515137,0.883301,-0.010295154282546124,-29.788628955669363,106.0386458997094,0.5813162326812744,-0.15455009043216705,-0.20538318157196045,0.7720125317573547
4fc4d850-388d-424f-96e9-53a92ea3ea2a,74f062f9-10a4-49e2-ab35-9246e443d047,1760515538690502928,-1.047134,-0.707626,0.463486,0.003418,-0.504883,0.889648,-0.01760720863970886,-29.79916578558909,105.91555892298116,0.5821177959442139,-0.15477491915225983,-0.20532512664794922,0.7713786959648132
4fc4d850-388d-424f-96e9-53a92ea3ea2a,74f062f9-10a4-49e2-ab35-9246e443d047,1760515538701172928,-1.169205,-0.28038,0.524521,-0.01123,-0.513672,0.898437,-0.013203554863243476,-29.799032007980813,105.77895384453458,0.5830450057983398,-0.15504850447177887,-0.20511716604232788,0.7706785202026367
4fc4d850-388d-424f-96e9-53a92ea3ea2a,74f062f9-10a4-49e2-ab35-9246e443d047,1760515538711842928,-1.167297,0.083923,0.524521,-0.007812,-0.508789,0.890137,-0.009517845512994763,-29.804323052851274,105.70688785795882,0.583528995513916,-0.15522921085357666,-0.20503641664981842,0.7702971696853638
4fc4d850-388d-424f-96e9-53a92ea3ea2a,74f062f9-10a4-49e2-ab35-9246e443d047,1760515538719822928,-0.923157,-0.099182,0.707626,-0.007324,-0.513672,0.897461,-0.01055302280342775,-29.802577115553053,105.43272787329354,0.5853707790374756,-0.15570344030857086,-0.20465801656246185,0.7689034342765808
4fc4d850-388d-424f-96e9-53a92ea3ea2a,74f062f9-10a4-49e2-ab35-9246e443d047,1760515538727803928,-0.617981,-0.221252,0.646591,0.002441,-0.515625,0.892578,-0.013269808962824332,-29.802852422883277,105.26593120432601,0.5864841341972351,-0.15598437190055847,-0.2044469118118286,0.7680537700653076
4fc4d850-388d-424f-96e9-53a92ea3ea2a,74f062f9-10a4-49e2-ab35-9246e443d047,1760515538735784928,-1.045227,0.389099,0.890732,0.008789,-0.516113,0.887695,-0.011305872532457425,-29.809859907818826,105.12583249211717,0.5874166488647461,-0.15628328919410706,-0.2042929083108902,0.767320990562439
4fc4d850-388d-424f-96e9-53a92ea3ea2a,74f062f9-10a4-49e2-ab35-9246e443d047,1760515538743765928,-0.984192,0.209808,1.134872,0.000488,-0.5,0.876953,-0.01087438805742817,-29.813192427289046,105.01680822253714,0.5881426334381104,-0.15649756789207458,-0.20416420698165894,0.7667552828788757
4fc4d850-388d-424f-96e9-53a92ea3ea2a,74f062f9-10a4-49e2-ab35-9246e443d047,1760515538754452928,-0.984192,-0.038147,0.768661,-0.004395,-0.51709,0.88623,-0.007616255329317046,-29.82376239037714,104.88867199156854,0.5889909863471985,-0.15680189430713654,-0.20404300093650818,0.7660738229751587
4fc4d850-388d-424f-96e9-53a92ea3ea2a,74f062f9-10a4-49e2-ab35-9246e443d047,1760515538765139928,-0.984192,0.267029,0.768661,-0.000488,-0.520996,0.876953,-0.009015582062997697,-29.827105142985676,104.7587583117395,0.5898520350456238,-0.15704096853733063,-0.20389463007450104,0.7654016017913818
4fc4d850-388d-424f-96e9-53a92ea3ea2a,74f062f9-10a4-49e2-ab35-9246e443d047,1760515538775826928,-1.167297,0.389099,0.524521,-0.000977,-0.513184,0.882812,-0.006718619685744906,-29.834298200480468,104.71873851565041,0.5901135206222534,-0.1571645438671112,-0.20387597382068634,0.7651796340942383
4fc4d850-388d-424f-96e9-53a92ea3ea2a,74f062f9-10a4-49e2-ab35-9246e443d047,1760515538783830928,-1.411438,0.87738,0.463486,-0.005371,-0.516602,0.895508,0.0022220750697489627,-29.84677813364932,104.65655788063485,0.5905274152755737,-0.15739916265010834,-0.2038278877735138,0.7648247480392456
4fc4d850-388d-424f-96e9-53a92ea3ea2a,74f062f9-10a4-49e2-ab35-9246e443d047,1760515538791834928,-1.472473,0.63324,0.585556,-0.001953,-0.509766,0.887207,0.010690364628674426,-29.85949460769061,104.54575362620075,0.5912642478942871,-0.1577182561159134,-0.2037167102098465,0.7642191648483276
4fc4d850-388d-424f-96e9-53a92ea3ea2a,74f062f9-10a4-49e2-ab35-9246e443d047,1760515538799838928,-1.472473,0.63324,0.585556,0.013672,-0.513672,0.880371,0.01465016614108411,-29.872193333225333,104.40008674146456,0.5922247767448425,-0.15806910395622253,-0.20358020067214966,0.763438880443573
4fc4d850-388d-424f-96e9-53a92ea3ea2a,74f062f9-10a4-49e2-ab35-9246e443d047,1760515538807842928,-1.35231,0.329971,0.463486,0.004395,-0.498535,0.899902,0.02003871777949299,-29.880372020741092,104.24275870676917,0.5932706594467163,-0.1584266722202301,-0.20338952541351318,0.7626030445098877
4fc4d850-388d-424f-96e9-53a92ea3ea2a,74f062f9-10a4-49e2-ab35-9246e443d047,1760515538818506928,-1.409531,0.513077,0.28038,0.020508,-0.512207,0.881836,0.018554582477522882,-29.88681402679647,104.06709287606097,0.5944274663925171,-0.15876181423664093,-0.2031969428062439,0.7616833448410034
4fc4d850-388d-424f-96e9-53a92ea3ea2a,74f062f9-10a4-49e2-ab35-9246e443d047,1760515538829170928,-1.047134,0.207901,0.03624,-0.003906,-0.508789,0.876953,0.020161640527656538,-29.892098537981855,103.93163407611401,0.5953229665756226,-0.15904003381729126,-0.2030358761548996,0.7609685063362122
4fc4d850-388d-424f-96e9-53a92ea3ea2a,74f062f9-10a4-49e2-ab35-9246e443d047,1760515538839834928,-1.409531,0.207901,-0.085831,-0.001953,-0.521484,0.885742,0.018331304516343093,-29.906440227211,103.80108504161166,0.5961663722991943,-0.1593337059020996,-0.20295923948287964,0.760266900062561
4fc4d850-388d-424f-96e9-53a92ea3ea2a,74f062f9-10a4-49e2-ab35-9246e443d047,1760515538850498928,-1.409531,0.696182,-0.268936,0.007324,-0.513672,0.887695,0.016444323238100796,-29.91297152474698,103.70912008355387,0.5967639088630676,-0.1595180332660675,-0.20288443565368652,0.7597792744636536
4fc4d850-388d-424f-96e9-53a92ea3ea2a,74f062f9-10a4-49e2-ab35-9246e443d047,1760515538861161928,-1.472473,1.426697,-0.574112,0.004883,-0.512207,0.890625,0.021216766584619424,-29.92693425940139,103.5997164680201,0.5974780321121216,-0.15981608629226685,-0.20279967784881592,0.7591777443885803
4fc4d850-388d-424f-96e9-53a92ea3ea2a,74f062f9-10a4-49e2-ab35-9246e443d047,1760515538871824928,-1.592636,1.489639,-0.940323,-0.005859,-0.496094,0.891602,0.028323413115468054,-29.937908925000336,103.45529083937448,0.5984316468238831,-0.1601758897304535,-0.20263361930847168,0.7583947777748108
4fc4d850-388d-424f-96e9-53a92ea3ea2a,74f062f9-10a4-49e2-ab35-9246e443d047,1760515538879811928,-1.899719,1.731873,-1.123428,0.000488,-0.528809,0.874512,0.043794450761771256,-29.97525846722975,103.2423964800745,0.5998147130012512,-0.16084979474544525,-0.2025015503168106,0.7571938037872314
4fc4d850-388d-424f-96e9-53a92ea3ea2a,74f062f9-10a4-49e2-ab35-9246e443d047,1760515538887800928,-1.777649,1.491547,-1.184464,-0.00293,-0.513672,0.889648,0.0534042254195577,-29.98985570582922,103.07418003081622,0.6009221076965332,-0.1612868309020996,-0.202311173081398,0.7562731504440308
4fc4d850-388d-424f-96e9-53a92ea3ea2a,74f062f9-10a4-49e2-ab35-9246e443d047,1760515538895789928,-1.411438,1.857758,-1.550674,-0.008789,-0.518555,0.881348,0.06523036206194457,-30.00620427089029,102.91997691068127,0.6019371747970581,-0.16172274947166443,-0.20213963091373444,0.7554181814193726
4fc4d850-388d-424f-96e9-53a92ea3ea2a,74f062f9-10a4-49e2-ab35-9246e443d047,1760515538903778928,-1.840591,1.489639,-1.489639,0.002441,-0.515625,0.892578,0.07124496914678285,-30.020390253105877,102.77663466682051,0.6028723120689392,-0.16208970546722412,-0.2019989788532257,0.754630982875824
4fc4d850-388d-424f-96e9-53a92ea3ea2a,74f062f9-10a4-49e2-ab35-9246e443d047,1760515538914666928,-1.289368,1.491547,-1.184464,-0.01709,-0.512695,0.880371,0.08619581842156648,-30.035167839835946,102.65581378805264,0.6036731600761414,-0.16247878968715668,-0.20184646546840668,0.7539475560188293
4fc4d850-388d-424f-96e9-53a92ea3ea2a,74f062f9-10a4-49e2-ab35-9246e443d047,1760515538925554928,-1.104355,1.794815,-0.818253,-0.008301,-0.535645,0.879394,0.10073660965577384,-30.050515244900822,102.52706288442997,0.6045238375663757,-0.1628819704055786,-0.2016879916191101,0.7532210350036621
4fc4d850-388d-424f-96e9-53a92ea3ea2a,74f062f9-10a4-49e2-ab35-9246e443d047,1760515538936442928,-1.169205,1.61171,-0.329971,-0.009277,-0.521484,0.885254,0.12081123817059539,-30.060390236711843,102.38642528452195,0.6054691672325134,-0.1633133590221405,-0.2014467418193817,0.7524324059486389
4fc4d850-388d-424f-96e9-53a92ea3ea2a,74f062f9-10a4-49e2-ab35-9246e443d047,1760515538946900928,-1.047134,1.794815,0.219345,-0.004883,-0.516602,0.886719,0.1389240377051171,-30.068379832622806,102.38661647368137,0.6054884791374207,-0.16347414255142212,-0.20140379667282104,0.7523934245109558
4fc4d850-388d-424f-96e9-53a92ea3ea2a,74f062f9-10a4-49e2-ab35-9246e443d047,1760515538957356928,-0.558853,1.85585,0.463486,-0.017578,-0.524414,0.879883,0.16467418826174768,-30.080654917328474,102.33196004848723,0.6058751940727234,-0.1638040393590927,-0.20127026736736298,0.7520459890365601
4fc4d850-388d-424f-96e9-53a92ea3ea2a,74f062f9-10a4-49e2-ab35-9246e443d047,1760515538967812928,-0.801086,1.792908,0.585556,-0.018555,-0.51123,0.890625,0.19004646278263576,-30.085512425349737,102.20295087564931,0.6067591309547424,-0.1642225831747055,-0.20098325610160828,0.7513184547424316
4fc4d850-388d-424f-96e9-53a92ea3ea2a,74f062f9-10a4-49e2-ab35-9246e443d047,1760515538975824928,-0.984192,1.674652,0.829697,-0.006348,-0.506348,0.883301,0.23352394453372113,-30.100689024260507,102.09342997780158,0.6075316667556763,-0.16477978229522705,-0.2006952166557312,0.7506488561630249
4fc4d850-388d-424f-96e9-53a92ea3ea2a,74f062f9-10a4-49e2-ab35-9246e443d047,1760515538983838928,-0.741959,1.85585,0.890732,-0.006348,-0.504395,0.886719,0.2569743479882011,-30.103286939551705,102.00116168065053,0.6081732511520386,-0.1651086062192917,-0.20045503973960876,0.7501210570335388
4fc4d850-388d-424f-96e9-53a92ea3ea2a,74f062f9-10a4-49e2-ab35-9246e443d047,1760515538991852928,-0.616074,1.977921,1.134872,-0.015137,-0.506348,0.895019,0.2874235789240472,-30.108504193503997,101.9051952604981,0.6088470816612244,-0.16550327837467194,-0.20018908381462097,0.7495582699775696
4fc4d850-388d-424f-96e9-53a92ea3ea2a,74f062f9-10a4-49e2-ab35-9246e443d047,1760515538999866928,-0.495911,1.609802,1.989365,-0.030273,-0.523438,0.884766,0.32374269074955825,-30.112058509003916,101.81442783758438,0.6094989776611328,-0.16591808199882507,-0.19988802075386047,0.7490168809890747
4fc4d850-388d-424f-96e9-53a92ea3ea2a,74f062f9-10a4-49e2-ab35-9246e443d047,1760515539010559928,-0.495911,1.243591,2.29454,-0.023926,-0.516602,0.875977,0.3572184910135011,-30.11940827071736,101.71999460332957,0.6101639866828918,-0.16634047031402588,-0.1996210515499115,0.7484527230262756
4fc4d850-388d-424f-96e9-53a92ea3ea2a,74f062f9-10a4-49e2-ab35-9246e443d047,1760515539021252928,-0.617981,1.186371,2.904892,-0.021973,-0.512695,0.88623,0.38757061167294,-30.124487500100372,101.62323652219376,0.6108413934707642,-0.16673408448696136,-0.1993519365787506,0.7478840947151184
4fc4d850-388d-424f-96e9-53a92ea3ea2a,74f062f9-10a4-49e2-ab35-9246e443d047,1760515539031945928,-0.495911,0.63324,3.454208,-0.024902,-0.517578,0.882812,0.4172893771120411,-30.12764515953419,101.52799347027258,0.6115099787712097,-0.1671103537082672,-0.19907532632350922,0.7473272085189819
4fc4d850-388d-424f-96e9-53a92ea3ea2a,74f062f9-10a4-49e2-ab35-9246e443d047,1760515539042597928,-0.37384,0.083923,3.759384,-0.018066,-0.520508,0.879883,0.44509137188870385,-30.131187956808326,101.539329647833,0.6114793419837952,-0.1672908514738083,-0.19896665215492249,0.7473407983779907
4fc4d850-388d-424f-96e9-53a92ea3ea2a,74f062f9-10a4-49e2-ab35-9246e443d047,1760515539053250928,-0.558853,0.207901,3.759384,-0.005859,-0.515625,0.881836,0.46641932170141226,-30.136387666576926,101.56057221814865,0.6113705039024353,-0.16742075979709625,-0.19891785085201263,0.747413694858551
4fc4d850-388d-424f-96e9-53a92ea3ea2a,74f062f9-10a4-49e2-ab35-9246e443d047,1760515539063903928,-0.375748,-0.28038,3.759384,-0.013184,-0.508789,0.885254,0.4880241785405205,-30.139382829576437,101.4923184356899,0.6118488311767578,-0.1676959991455078,-0.19872230291366577,0.7470124959945679
4fc4d850-388d-424f-96e9-53a92ea3ea2a,74f062f9-10a4-49e2-ab35-9246e443d047,1760515539071884928,-0.864029,-0.646591,3.271103,-0.008789,-0.516602,0.882812,0.5154900715257436,-30.15799889382282,101.39880171884239,0.6124796271324158,-0.16813626885414124,-0.19856008887290955,0.7464394569396973
4fc4d850-388d-424f-96e9-53a92ea3ea2a,74f062f9-10a4-49e2-ab35-9246e443d047,1760515539079867928,-1.104355,-1.134872,3.026962,-0.005859,-0.527344,0.881348,0.5189999847405108,-30.172426235206675,101.27929780615271,0.6132434606552124,-0.16844308376312256,-0.1984599381685257,0.7457694411277771
4fc4d850-388d-424f-96e9-53a92ea3ea2a,74f062f9-10a4-49e2-ab35-9246e443d047,1760515539087850928,-1.167297,-1.38092,2.416611,0.0,-0.533203,0.891602,0.5149878608258676,-30.18570888849984,101.15571782095273,0.6140216588973999,-0.1687019020318985,-0.19838620722293854,0.7450898885726929
4fc4d850-388d-424f-96e9-53a92ea3ea2a,74f062f9-10a4-49e2-ab35-9246e443d047,1760515539095833928,-0.984192,-1.438141,2.0504,0.00293,-0.537598,0.888672,0.5046815584578899,-30.199826046983112,101.04295987280726,0.6147167086601257,-0.1689056009054184,-0.19836729764938354,0.7444753646850586
4fc4d850-388d-424f-96e9-53a92ea3ea2a,74f062f9-10a4-49e2-ab35-9246e443d047,1760515539106788928,-0.741959,-1.806259,1.317978,-0.000488,-0.521973,0.897949,0.4897136080042863,-30.209081744819354,100.94983547221355,0.6152824759483337,-0.16901911795139313,-0.1983705461025238,0.7439812421798706
4fc4d850-388d-424f-96e9-53a92ea3ea2a,74f062f9-10a4-49e2-ab35-9246e443d047,1760515539117743928,-1.047134,-1.256943,0.585556,0.006836,-0.512207,0.885742,0.4746573348783288,-30.216924003194617,100.83624338738298,0.6159824728965759,-0.16916006803512573,-0.19833481311798096,0.7433791756629944
4fc4d850-388d-424f-96e9-53a92ea3ea2a,74f062f9-10a4-49e2-ab35-9246e443d047,1760515539128698928,-0.801086,-1.197815,0.219345,0.001953,-0.532227,0.893555,0.46666446728145067,-30.223050519271762,100.72899323474213,0.6166554093360901,-0.16932670772075653,-0.19825920462608337,0.7428032159805298
4fc4d850-388d-424f-96e9-53a92ea3ea2a,74f062f9-10a4-49e2-ab35-9246e443d047,1760515539139150928,-0.495911,-0.766754,-1.001358,-0.004395,-0.514648,0.885254,0.4674361963703509,-30.224685681903644,100.66114608050675,0.617094099521637,-0.1694578379392624,-0.19816537201404572,0.7424339652061462
4fc4d850-388d-424f-96e9-53a92ea3ea2a,74f062f9-10a4-49e2-ab35-9246e443d047,1760515539149601928,-0.192642,-0.646591,-0.818253,-0.00293,-0.520508,0.877441,0.4623851930551808,-30.228106673488345,100.6433954129576,0.6171954870223999,-0.16947419941425323,-0.19818852841854095,0.7423397302627563
4fc4d850-388d-424f-96e9-53a92ea3ea2a,74f062f9-10a4-49e2-ab35-9246e443d047,1760515539160052928,-0.192642,-0.768661,-1.062393,0.005859,-0.526367,0.893066,0.45661299361506563,-30.23053116377279,100.5314905920223,0.6179066896438599,-0.1696433424949646,-0.19806978106498718,0.741740882396698
4fc4d850-388d-424f-96e9-53a92ea3ea2a,74f062f9-10a4-49e2-ab35-9246e443d047,1760515539170659928,-0.007629,-0.404358,-1.367569,-0.001953,-0.524414,0.891602,0.45006470492198364,-30.235024557581063,100.28555982396188,0.6194794178009033,-0.17004996538162231,-0.19776973128318787,0.7404147982597351
4fc4d850-388d-424f-96e9-53a92ea3ea2a,74f062f9-10a4-49e2-ab35-9246e443d047,1760515539181264928,-0.127792,-0.15831,-0.879288,-0.018555,-0.512207,0.881348,0.4529742081792375,-30.235002383977857,100.18507988686228,0.6201334595680237,-0.17024196684360504,-0.19760465621948242,0.739867091178894
4fc4d850-388d-424f-96e9-53a92ea3ea2a,74f062f9-10a4-49e2-ab35-9246e443d047,1760515539191869928,-0.253677,-0.03624,-0.879288,-0.009766,-0.516113,0.867676,0.4549016053753597,-30.236330591821357,100.0868085461653,0.6207691431045532,-0.170430988073349,-0.1974567323923111,0.7393297553062439
4fc4d850-388d-424f-96e9-53a92ea3ea2a,74f062f9-10a4-49e2-ab35-9246e443d047,1760515539202501928,-0.434875,0.267029,-0.879288,-0.007324,-0.529785,0.882812,0.456302954960477,-30.241364328517026,99.97954656354086,0.6214560866355896,-0.17065200209617615,-0.1973220258951187,0.7387374043464661
4fc4d850-388d-424f-96e9-53a92ea3ea2a,74f062f9-10a4-49e2-ab35-9246e443d047,1760515539213134928,-0.616074,0.818253,-0.635147,-0.001465,-0.509277,0.87207,0.4514572006744108,-30.242010594649408,99.88844116691345,0.622033953666687,-0.17078112065792084,-0.19721676409244537,0.7382491230964661
4fc4d850-388d-424f-96e9-53a92ea3ea2a,74f062f9-10a4-49e2-ab35-9246e443d047,1760515539223767928,-0.495911,1.121521,-0.818253,-0.003906,-0.525879,0.873535,0.45128759518649086,-30.24503677822669,99.82868861022418,0.6224141716957092,-0.17089924216270447,-0.1971481293439865,0.7379195690155029
4fc4d850-388d-424f-96e9-53a92ea3ea2a,74f062f9-10a4-49e2-ab35-9246e443d047,1760515539234457928,-0.432968,1.001358,-0.696182,-0.004883,-0.52832,0.889648,0.45536430739330214,-30.2500402985178,99.64847861632902,0.6235736608505249,-0.1712624579668045,-0.19688917696475983,0.7369248867034912
4fc4d850-388d-424f-96e9-53a92ea3ea2a,74f062f9-10a4-49e2-ab35-9246e443d047,1760515539245149928,-0.253677,0.818253,-0.635147,-0.016113,-0.524414,0.890625,0.45833096183035843,-30.25267984563189,99.5877516436426,0.6239653825759888,-0.17140017449855804,-0.19679923355579376,0.736585259437561
4fc4d850-388d-424f-96e9-53a92ea3ea2a,74f062f9-10a4-49e2-ab35-9246e443d047,1760515539255841928,-0.375748,0.635147,-0.818253,-0.005371,-0.516113,0.882812,0.4576239952173897,-30.25557456582634,99.48975340285423,0.6245896816253662,-0.17157961428165436,-0.19667506217956543,0.7360473275184631
4fc4d850-388d-424f-96e9-53a92ea3ea2a,74f062f9-10a4-49e2-ab35-9246e443d047,1760515539263840928,-0.1297,0.87738,-0.879288,-0.01709,-0.529297,0.88916,0.4629971717150548,-30.259663793672342,99.37311787281439,0.6253418326377869,-0.1718364655971527,-0.19649729132652283,0.7353959083557129
4fc4d850-388d-424f-96e9-53a92ea3ea2a,74f062f9-10a4-49e2-ab35-9246e443d047,1760515539271837928,0.234604,0.818253,-1.184464,-0.003418,-0.513672,0.902832,0.46396252583199177,-30.257267933601558,99.26370982747528,0.6260488033294678,-0.17201712727546692,-0.19631247222423553,0.7348012924194336
4fc4d850-388d-424f-96e9-53a92ea3ea2a,74f062f9-10a4-49e2-ab35-9246e443d047,1760515539279834928,0.175476,0.816345,-1.001358,-0.003418,-0.523438,0.886719,0.4656511268072479,-30.256978577904626,99.16331631400818,0.6266956329345703,-0.17219829559326172,-0.19615060091018677,0.7342504858970642
4fc4d850-388d-424f-96e9-53a92ea3ea2a,74f062f9-10a4-49e2-ab35-9246e443d047,1760515539287831928,0.175476,0.514984,-1.062393,-0.017578,-0.518066,0.88623,0.4688770122007185,-30.25388129759536,99.09590418141794,0.6271374821662903,-0.17231740057468414,-0.1960117369890213,0.7338823080062866
4fc4d850-388d-424f-96e9-53a92ea3ea2a,74f062f9-10a4-49e2-ab35-9246e443d047,1760515539295851928,0.234604,0.268936,-1.184464,-0.010742,-0.518066,0.890625,0.47049521171469877,-30.254178486412272,99.00917467470066,0.6276950836181641,-0.17247769236564636,-0.19587430357933044,0.7334044575691223
4fc4d850-388d-424f-96e9-53a92ea3ea2a,74f062f9-10a4-49e2-ab35-9246e443d047,1760515539303871928,0.175476,-0.343323,-1.062393,-0.003906,-0.515137,0.888184,0.47184638954536795,-30.25355015626355,98.95341575215814,0.6280550956726074,-0.17257818579673767,-0.19577892124652863,0.733098030090332
4fc4d850-388d-424f-96e9-53a92ea3ea2a,74f062f9-10a4-49e2-ab35-9246e443d047,1760515539311891928,0.055313,0.329971,-1.001358,-0.021484,-0.517578,0.89209,0.47451781563833156,-30.251965496436018,98.9462154874535,0.628108024597168,-0.1725989133119583,-0.19574327766895294,0.7330573201179504
4fc4d850-388d-424f-96e9-53a92ea3ea2a,74f062f9-10a4-49e2-ab35-9246e443d047,1760515539319911928,0.055313,0.024796,-0.879288,-0.004883,-0.504883,0.897949,0.47521406846061415,-30.249129495494724,98.84875869632282,0.6287365555763245,-0.17275425791740417,-0.19557443261146545,0.7325267791748047
4fc4d850-388d-424f-96e9-53a92ea3ea2a,74f062f9-10a4-49e2-ab35-9246e443d047,1760515539330564928,0.112534,0.024796,-0.696182,-0.009277,-0.523438,0.885742,0.47521196740129157,-30.254033335790044,98.74037851409196,0.6294219493865967,-0.17296600341796875,-0.1954423487186432,0.7319232225418091
4fc4d850-388d-424f-96e9-53a92ea3ea2a,74f062f9-10a4-49e2-ab35-9246e443d047,1760515539341217928,0.112534,-0.341415,-0.696182,-0.023437,-0.514648,0.88623,0.47874012704814967,-30.252858393083766,98.69540664596936,0.6297168731689453,-0.17305877804756165,-0.19534754753112793,0.7316728830337524
4fc4d850-388d-424f-96e9-53a92ea3ea2a,74f062f9-10a4-49e2-ab35-9246e443d047,1760515539351870928,-0.1297,-0.221252,-0.513077,0.00293,-0.508789,0.887207,0.4750397603954084,-30.25234349617079,98.63005335725971,0.6301285028457642,-0.17314372956752777,-0.19526587426662445,0.7313200831413269
4fc4d850-388d-424f-96e9-53a92ea3ea2a,74f062f9-10a4-49e2-ab35-9246e443d047,1760515539362513928,0.112534,-0.28038,-0.391006,-0.009766,-0.514648,0.889648,0.47295528456193825,-30.248364532639588,98.42489299407357,0.6314390897750854,-0.17345790565013885,-0.1949416548013687,0.7302008271217346
4fc4d850-388d-424f-96e9-53a92ea3ea2a,74f062f9-10a4-49e2-ab35-9246e443d047,1760515539373157928,0.175476,-0.404358,-0.329971,-0.00293,-0.503418,0.886719,0.47002390321397775,-30.24566329336111,98.31551684592422,0.632134735584259,-0.1736103594303131,-0.19477494060993195,0.7296069860458374
4fc4d850-388d-424f-96e9-53a92ea3ea2a,74f062f9-10a4-49e2-ab35-9246e443d047,1760515539383801928,-0.007629,-0.587463,-0.085831,-0.010742,-0.50293,0.878418,0.4703084519284906,-30.24439385434294,98.20476460995668,0.632841944694519,-0.17379334568977356,-0.19459739327430725,0.7289974689483643
4fc4d850-388d-424f-96e9-53a92ea3ea2a,74f062f9-10a4-49e2-ab35-9246e443d047,1760515539394493928,0.112534,-0.524521,0.03624,-0.003418,-0.520508,0.879394,0.46912210071579835,-30.242943594939657,98.10233651830109,0.6334934234619141,-0.17395168542861938,-0.19443929195404053,0.7284358143806458
4fc4d850-388d-424f-96e9-53a92ea3ea2a,74f062f9-10a4-49e2-ab35-9246e443d047,1760515539405184928,0.175476,-0.587463,-0.024796,0.003418,-0.500488,0.888672,0.46462168357942407,-30.240750889212737,98.01365100715077,0.634052574634552,-0.17406141757965088,-0.19431555271148682,0.7279559969902039
4fc4d850-388d-424f-96e9-53a92ea3ea2a,74f062f9-10a4-49e2-ab35-9246e443d047,1760515539415875928,0.234604,-0.219345,0.219345,-0.007324,-0.516602,0.889648,0.4665055971622262,-30.239936253385725,97.98920347441586,0.6342122554779053,-0.17411033809185028,-0.1942628026008606,0.7278192639350891
4fc4d850-388d-424f-96e9-53a92ea3ea2a,74f062f9-10a4-49e2-ab35-9246e443d047,1760515539426536928,0.175476,-0.343323,0.402451,0.00293,-0.510742,0.890137,0.46278313651689473,-30.238335589292543,97.80215768755994,0.6353954672813416,-0.17439472675323486,-0.19398881494998932,0.7267915606498718
4fc4d850-388d-424f-96e9-53a92ea3ea2a,74f062f9-10a4-49e2-ab35-9246e443d047,1760515539437199928,0.234604,-0.219345,0.646591,-0.004395,-0.517578,0.884766,0.46115837230260354,-30.23699829479963,97.7208417005497,0.6359102725982666,-0.17451465129852295,-0.19386553764343262,0.7263452410697937
4fc4d850-388d-424f-96e9-53a92ea3ea2a,74f062f9-10a4-49e2-ab35-9246e443d047,1760515539447862928,0.234604,-0.03624,0.707626,-0.006348,-0.495117,0.883789,0.4602978395431279,-30.232369609722834,97.63179767620491,0.6364798545837402,-0.1746341437101364,-0.19370527565479279,0.7258602380752563
4fc4d850-388d-424f-96e9-53a92ea3ea2a,74f062f9-10a4-49e2-ab35-9246e443d047,1760515539455859928,0.234604,0.452042,1.379013,-0.011719,-0.512207,0.881348,0.46534906330126463,-30.22790230370601,97.53039211758951,0.6371370553970337,-0.1748126745223999,-0.19349424540996552,0.7252967953681946
4fc4d850-388d-424f-96e9-53a92ea3ea2a,74f062f9-10a4-49e2-ab35-9246e443d047,1760515539463855928,0.480652,0.267029,1.684189,0.002441,-0.505859,0.871582,0.46989664351654664,-30.22485952126131,97.45038857427892,0.6376554369926453,-0.17495959997177124,-0.19332756102085114,0.7248501181602478
4fc4d850-388d-424f-96e9-53a92ea3ea2a,74f062f9-10a4-49e2-ab35-9246e443d047,1760515539471851928,-0.253677,0.513077,2.111435,-0.007324,-0.499512,0.885254,0.4817515250350193,-30.21805412943028,97.37568828916018,0.638157844543457,-0.17512273788452148,-0.1931043416261673,0.7244279384613037
4fc4d850-388d-424f-96e9-53a92ea3ea2a,74f062f9-10a4-49e2-ab35-9246e443d047,1760515539479847928,-0.192642,0.513077,1.928329,-0.001953,-0.503418,0.877441,0.4971832784011531,-30.21747776392612,97.31464616431084,0.6385704874992371,-0.1753198802471161,-0.19292138516902924,0.7240653038024902
4fc4d850-388d-424f-96e9-53a92ea3ea2a,74f062f9-10a4-49e2-ab35-9246e443d047,1760515539490514928,-0.432968,1.123428,2.355576,-0.009277,-0.498047,0.874512,0.5152008562288326,-30.214162875122316,97.25350111971687,0.6389919519424438,-0.17551815509796143,-0.19270636141300201,0.723702609539032
4fc4d850-388d-424f-96e9-53a92ea3ea2a,74f062f9-10a4-49e2-ab35-9246e443d047,1760515539501181928,-0.864029,1.428604,2.233505,0.00293,-0.499023,0.876465,0.5332226963319062,-30.218402265673337,97.18934762119218,0.6394210457801819,-0.17576336860656738,-0.19253432750701904,0.7233097553253174
4fc4d850-388d-424f-96e9-53a92ea3ea2a,74f062f9-10a4-49e2-ab35-9246e443d047,1760515539511848928,-1.167297,1.731873,2.416611,-0.00293,-0.504395,0.867187,0.5545171481526168,-30.224274547514998,97.21246186354416,0.6393022537231445,-0.17589162290096283,-0.19248813390731812,0.7233958840370178
4fc4d850-388d-424f-96e9-53a92ea3ea2a,74f062f9-10a4-49e2-ab35-9246e443d047,1760515539522502928,-1.960754,1.731873,2.599716,-0.010742,-0.502441,0.869629,0.6146830897340266,-30.25508470051654,97.15426378184274,0.6397251486778259,-0.17654046416282654,-0.19225777685642242,0.7229249477386475
4fc4d850-388d-424f-96e9-53a92ea3ea2a,74f062f9-10a4-49e2-ab35-9246e443d047,1760515539533154928,-3.000259,2.099991,2.721786,-0.015137,-0.519531,0.883789,0.6487377949997929,-30.286028497690282,97.08407565655061,0.6401793360710144,-0.17704522609710693,-0.19215497374534607,0.7224264740943909
4fc4d850-388d-424f-96e9-53a92ea3ea2a,74f062f9-10a4-49e2-ab35-9246e443d047,1760515539543806928,-3.608704,2.220154,2.660751,-0.003418,-0.518555,0.880859,0.6823186120051525,-30.31913290751599,97.00815624086455,0.6406652927398682,-0.17756852507591248,-0.19205904006958008,0.7218924164772034
4fc4d850-388d-424f-96e9-53a92ea3ea2a,74f062f9-10a4-49e2-ab35-9246e443d047,1760515539551901928,-3.671646,2.466202,2.965927,-0.014648,-0.515137,0.881348,0.7171445150052358,-30.350586762904026,96.9567759599857,0.6410008668899536,-0.178049236536026,-0.19198323786258698,0.721496045589447
4fc4d850-388d-424f-96e9-53a92ea3ea2a,74f062f9-10a4-49e2-ab35-9246e443d047,1760515539559994928,-3.545761,2.161026,2.721786,-0.005859,-0.523926,0.890625,0.7536286604643777,-30.384272357430763,96.89947430482054,0.6413729786872864,-0.17856267094612122,-0.19190262258052826,0.7210595607757568
4fc4d850-388d-424f-96e9-53a92ea3ea2a,74f062f9-10a4-49e2-ab35-9246e443d047,1760515539568087928,-3.183365,1.85585,2.416611,-0.013184,-0.518066,0.898926,0.7868767115094205,-30.412687301135858,96.82602261241678,0.641848623752594,-0.1790526956319809,-0.19178111851215363,0.7205487489700317
4fc4d850-388d-424f-96e9-53a92ea3ea2a,74f062f9-10a4-49e2-ab35-9246e443d047,1760515539576180928,-2.449036,2.281189,2.477646,-0.004883,-0.535645,0.889648,0.8138885106054008,-30.439122140917814,96.8027928653299,0.6420008540153503,-0.17940884828567505,-0.19176022708415985,0.7203300595283508
4fc4d850-388d-424f-96e9-53a92ea3ea2a,74f062f9-10a4-49e2-ab35-9246e443d047,1760515539586733928,-1.594543,2.220154,1.928329,-0.007324,-0.516602,0.894531,0.8442576889417197,-30.456742547252254,96.76870870349676,0.6422398686408997,-0.1797550469636917,-0.19164776802062988,0.7200605273246765
4fc4d850-388d-424f-96e9-53a92ea3ea2a,74f062f9-10a4-49e2-ab35-9246e443d047,1760515539597286928,-1.167297,2.586365,1.501083,-0.002441,-0.529297,0.901855,0.8679578049339591,-30.470377481562455,96.69913933119177,0.6426963806152344,-0.1800963282585144,-0.19149161875247955,0.7196093201637268
4fc4d850-388d-424f-96e9-53a92ea3ea2a,74f062f9-10a4-49e2-ab35-9246e443d047,1760515539607839928,-0.741959,2.710342,0.524521,-0.010742,-0.518555,0.894043,0.8947393526261462,-30.478920152109676,96.66973959667101,0.6429131031036377,-0.1803612858057022,-0.19134898483753204,0.7193872928619385
4fc4d850-388d-424f-96e9-53a92ea3ea2a,74f062f9-10a4-49e2-ab35-9246e443d047,1760515539618511928,-0.1297,2.586365,-0.024796,-0.01123,-0.531738,0.897461,0.9320360704819792,-30.48838026816147,96.55798992801263,0.6436625719070435,-0.1808346062898636,-0.1910230815410614,0.7186845541000366
4fc4d850-388d-424f-96e9-53a92ea3ea2a,74f062f9-10a4-49e2-ab35-9246e443d047,1760515539629184928,-0.37384,2.708435,-0.391006,-0.014648,-0.523438,0.883301,0.949065580056566,-30.49159672700348,96.45011569800238,0.6443624496459961,-0.18113906681537628,-0.1907772421836853,0.718045711517334
4fc4d850-388d-424f-96e9-53a92ea3ea2a,74f062f9-10a4-49e2-ab35-9246e443d047,1760515539639857928,-0.495911,2.346039,-1.062393,-0.015625,-0.524902,0.879394,0.9585360441772269,-30.49950474403288,96.3201225601518,0.6451806426048279,-0.18145893514156342,-0.1905680149793625,0.7172854542732239
4fc4d850-388d-424f-96e9-53a92ea3ea2a,74f062f9-10a4-49e2-ab35-9246e443d047,1760515539650518928,-1.655579,1.914978,-1.367569,-0.003906,-0.555664,0.888184,0.9681235926238138,-30.521221544008082,96.22180513658193,0.6457796096801758,-0.1818041056394577,-0.1904946118593216,0.716678261756897
4fc4d850-388d-424f-96e9-53a92ea3ea2a,74f062f9-10a4-49e2-ab35-9246e443d047,1760515539661181928,-0.984192,1.365662,-1.062393,-0.031738,-0.526855,0.88916,0.9802492354992899,-30.53930309648453,96.12438965392387,0.6463819742202759,-0.1821432262659073,-0.19038505852222443,0.716077983379364
4fc4d850-388d-424f-96e9-53a92ea3ea2a,74f062f9-10a4-49e2-ab35-9246e443d047,1760515539671844928,-0.741959,1.245499,-1.062393,-0.010254,-0.54541,0.894531,0.9907246416221452,-30.553813093891034,96.02157678888467,0.6470200419425964,-0.18246085941791534,-0.1902533918619156,0.7154556512832642
4fc4d850-388d-424f-96e9-53a92ea3ea2a,74f062f9-10a4-49e2-ab35-9246e443d047,1760515539679845928,0.358582,1.304626,-1.062393,-0.010254,-0.523438,0.914551,1.0063495251811014,-30.54141036946243,96.01307757583639,0.6471174359321594,-0.1825028657913208,-0.1900738626718521,0.7154045104980469
4fc4d850-388d-424f-96e9-53a92ea3ea2a,74f062f9-10a4-49e2-ab35-9246e443d047,1760515539687845928,1.760483,1.672745,-1.001358,-0.004883,-0.537598,0.907227,1.0155406025630647,-30.52366079745062,95.91493379557204,0.6477714776992798,-0.18262313306331635,-0.18975432217121124,0.7148665189743042
4fc4d850-388d-424f-96e9-53a92ea3ea2a,74f062f9-10a4-49e2-ab35-9246e443d047,1760515539695845928,2.616882,1.914978,-0.818253,-0.023926,-0.53125,0.902832,1.0325632565633456,-30.497399120005152,95.8446754509677,0.6482767462730408,-0.18269780278205872,-0.18938155472278595,0.7144882082939148
4fc4d850-388d-424f-96e9-53a92ea3ea2a,74f062f9-10a4-49e2-ab35-9246e443d047,1760515539703845928,3.166199,1.857758,-0.696182,-0.01709,-0.525879,0.890137,1.045799983497786,-30.471603666550347,95.8210106043085,0.6484843492507935,-0.18267425894737244,-0.18910738825798035,0.7143784165382385
4fc4d850-388d-424f-96e9-53a92ea3ea2a,74f062f9-10a4-49e2-ab35-9246e443d047,1760515539714529928,2.985001,1.489639,-0.635147,-0.01416,-0.530762,0.876465,1.0592029774057978,-30.455422329218226,95.74402662705045,0.649010181427002,-0.18279363214969635,-0.1888074427843094,0.7139495611190796
4fc4d850-388d-424f-96e9-53a92ea3ea2a,74f062f9-10a4-49e2-ab35-9246e443d047,1760515539725213928,1.520157,1.001358,-0.024796,-0.021484,-0.516113,0.870605,1.0713108968786613,-30.445800256713508,95.66586410501945,0.6495311856269836,-0.18294352293014526,-0.18855389952659607,0.7135042548179626
4fc4d850-388d-424f-96e9-53a92ea3ea2a,74f062f9-10a4-49e2-ab35-9246e443d047,1760515539735897928,0.846863,0.514984,0.341415,-0.029785,-0.534668,0.866699,1.07530696188683,-30.452759055841298,95.5852486783048,0.6500292420387268,-0.18314024806022644,-0.18844598531723022,0.7130285501480103
4fc4d850-388d-424f-96e9-53a92ea3ea2a,74f062f9-10a4-49e2-ab35-9246e443d047,1760515539746590928,0.175476,0.209808,1.134872,-0.022461,-0.521484,0.883301,1.0781760656528165,-30.45690920641836,95.55916194283094,0.6501901149749756,-0.1832244098186493,-0.18841394782066345,0.7128686904907227
4fc4d850-388d-424f-96e9-53a92ea3ea2a,74f062f9-10a4-49e2-ab35-9246e443d047,1760515539757284928,0.417709,0.574112,1.562119,-0.024414,-0.524902,0.868652,1.080626499508028,-30.464542356709266,95.53262682565722,0.650347888469696,-0.1833263635635376,-0.18840530514717102,0.7127007842063904
4fc4d850-388d-424f-96e9-53a92ea3ea2a,74f062f9-10a4-49e2-ab35-9246e443d047,1760515539767978928,0.358582,1.121521,1.928329,-0.015137,-0.526367,0.866211,1.0962311461634735,-30.467849131431112,95.44045412825643,0.6509416699409485,-0.1835934966802597,-0.1881897896528244,0.7121466994285583
4fc4d850-388d-424f-96e9-53a92ea3ea2a,74f062f9-10a4-49e2-ab35-9246e443d047,1760515539775929928,0.600815,1.184464,1.989365,-0.023926,-0.526855,0.863769,1.1414645407022785,-30.46584156107163,95.39475260663995,0.6513028144836426,-0.1839381754398346,-0.18784694373607635,0.7118180394172668
4fc4d850-388d-424f-96e9-53a92ea3ea2a,74f062f9-10a4-49e2-ab35-9246e443d047,1760515539783881928,1.089096,1.001358,2.599716,-0.018066,-0.538086,0.856934,1.1666094985257875,-30.462440480519987,95.33015305007835,0.6517502069473267,-0.18418093025684357,-0.1875789910554886,0.7114163041114807
4fc4d850-388d-424f-96e9-53a92ea3ea2a,74f062f9-10a4-49e2-ab35-9246e443d047,1760515539791833928,1.152039,1.792908,3.026962,-0.025391,-0.529297,0.871094,1.1998977875834524,-30.456644444772216,95.28397621085684,0.6520998477935791,-0.1844303011894226,-0.18727917969226837,0.7111102342605591
4fc4d850-388d-424f-96e9-53a92ea3ea2a,74f062f9-10a4-49e2-ab35-9246e443d047,1760515539799785928,1.394272,2.222061,3.087997,-0.014648,-0.533203,0.870605,1.2281342081380044,-30.451718431189988,95.2674539054651,0.6522557735443115,-0.18460464477539062,-0.18706114590168,0.7109793424606323
4fc4d850-388d-424f-96e9-53a92ea3ea2a,74f062f9-10a4-49e2-ab35-9246e443d047,1760515539810487928,1.274109,1.731873,2.965927,-0.012207,-0.541504,0.871094,1.2584106738232417,-30.450309145338228,95.22398942349946,0.6525768637657166,-0.1848553866147995,-0.18680991232395172,0.7106855511665344
4fc4d850-388d-424f-96e9-53a92ea3ea2a,74f062f9-10a4-49e2-ab35-9246e443d047,1760515539821189928,0.968933,1.914978,3.087997,-0.007812,-0.537598,0.86084,1.286906286298295,-30.454568964818804,95.168582885383,0.6529605388641357,-0.18514645099639893,-0.1865846961736679,0.7103164196014404
4fc4d850-388d-424f-96e9-53a92ea3ea2a,74f062f9-10a4-49e2-ab35-9246e443d047,1760515539831891928,0.84877,1.977921,2.843857,-0.018555,-0.539062,0.869629,1.3164624354487293,-30.456411479350717,95.10445815320658,0.6534032821655273,-0.18544436991214752,-0.18632401525974274,0.70989990234375
4fc4d850-388d-424f-96e9-53a92ea3ea2a,74f062f9-10a4-49e2-ab35-9246e443d047,1760515539842523928,0.417709,2.161026,2.233505,-0.013184,-0.530273,0.865234,1.342708301127217,-30.461659588699497,95.05788719166206,0.6537266373634338,-0.18571233749389648,-0.18613159656524658,0.7095825672149658
4fc4d850-388d-424f-96e9-53a92ea3ea2a,74f062f9-10a4-49e2-ab35-9246e443d047,1760515539853156928,0.663757,2.403259,1.928329,0.005859,-0.539062,0.875977,1.3640333227571382,-30.46494892393916,95.03319918448928,0.6539092659950256,-0.18590308725833893,-0.1859903782606125,0.7094013690948486
4fc4d850-388d-424f-96e9-53a92ea3ea2a,74f062f9-10a4-49e2-ab35-9246e443d047,1760515539863789928,0.968933,2.708435,1.440048,-0.015625,-0.532227,0.883301,1.3897076289531947,-30.464357000380154,94.96452324448609,0.6543768048286438,-0.18617002665996552,-0.18572863936424255,0.7089686393737793
4fc4d850-388d-424f-96e9-53a92ea3ea2a,74f062f9-10a4-49e2-ab35-9246e443d047,1760515539874525928,1.213074,2.708435,1.012802,-0.023926,-0.539062,0.875977,1.439878466795951,-30.461529111674157,94.93114316803675,0.6546686887741089,-0.18651838600635529,-0.18537019193172455,0.7087013721466064
4fc4d850-388d-424f-96e9-53a92ea3ea2a,74f062f9-10a4-49e2-ab35-9246e443d047,1760515539885263928,1.214981,2.649307,0.829697,-0.004395,-0.535645,0.890625,1.461199279728386,-30.45444881023544,94.89514122625498,0.6549361944198608,-0.186668261885643,-0.18514567613601685,0.7084734439849854
4fc4d850-388d-424f-96e9-53a92ea3ea2a,74f062f9-10a4-49e2-ab35-9246e443d047,1760515539896001928,1.76239,2.708435,0.341415,-0.019531,-0.518555,0.884277,1.4856218101127854,-30.440817137837097,94.83699095037812,0.6553550958633423,-0.18683576583862305,-0.18482647836208344,0.708125114440918
4fc4d850-388d-424f-96e9-53a92ea3ea2a,74f062f9-10a4-49e2-ab35-9246e443d047,1760515539906620928,2.859116,2.954483,-0.329971,-0.030762,-0.520508,0.90332,1.509291664112473,-30.416459994782823,94.77820826074996,0.6557921767234802,-0.18693843483924866,-0.18444372713565826,0.707793116569519
4fc4d850-388d-424f-96e9-53a92ea3ea2a,74f062f9-10a4-49e2-ab35-9246e443d047,1760515539917239928,3.103256,2.771378,-0.574112,-0.027344,-0.527344,0.902344,1.5329859657461467,-30.389966621469142,94.70064979378796,0.6563480496406555,-0.1870589256286621,-0.18401682376861572,0.7073570489883423
4fc4d850-388d-424f-96e9-53a92ea3ea2a,74f062f9-10a4-49e2-ab35-9246e443d047,1760515539927858928,3.530502,3.076553,-0.818253,-0.029785,-0.514648,0.895019,1.554549865362661,-30.358798415879928,94.59760955679283,0.6570641994476318,-0.1871805489063263,-0.18353141844272614,0.7067839503288269
4fc4d850-388d-424f-96e9-53a92ea3ea2a,74f062f9-10a4-49e2-ab35-9246e443d047,1760515539935840928,3.65448,3.196716,-1.001358,-0.022461,-0.514648,0.895996,1.6011387266578805,-30.289223103992374,94.45011451410868,0.6581496596336365,-0.187307208776474,-0.18259118497371674,0.7059838771820068
4fc4d850-388d-424f-96e9-53a92ea3ea2a,74f062f9-10a4-49e2-ab35-9246e443d047,1760515539943823928,3.591537,3.137589,-0.879288,-0.026367,-0.529785,0.895508,1.6249038505908813,-30.257558852589195,94.44752581652546,0.6582496762275696,-0.18727731704711914,-0.18225398659706116,0.7059858441352844
4fc4d850-388d-424f-96e9-53a92ea3ea2a,74f062f9-10a4-49e2-ab35-9246e443d047,1760515539951806928,3.713608,2.893448,-1.123428,-0.035156,-0.527344,0.887695,1.6458248837125913,-30.22521247602156,94.36170971386075,0.658858597278595,-0.1873580813407898,-0.18179282546043396,0.7055153250694275
4fc4d850-388d-424f-96e9-53a92ea3ea2a,74f062f9-10a4-49e2-ab35-9246e443d047,1760515539959789928,4.327774,2.771378,-1.184464,-0.037109,-0.517578,0.897949,1.6737374170442156,-30.18619487507922,94.27241969863309,0.6595091819763184,-0.18744871020317078,-0.18124434351921082,0.7050244808197021
4fc4d850-388d-424f-96e9-53a92ea3ea2a,74f062f9-10a4-49e2-ab35-9246e443d047,1760515539970476928,4.081726,2.708435,-0.879288,-0.057129,-0.504395,0.89209,1.702088679082589,-30.146165055483195,94.25817459157945,0.6596997976303101,-0.1874171495437622,-0.18080975115299225,0.7049662470817566
4fc4d850-388d-424f-96e9-53a92ea3ea2a,74f062f9-10a4-49e2-ab35-9246e443d047,1760515539981163928,3.591537,2.466202,-0.757217,-0.041992,-0.515137,0.894531,1.7263979910253306,-30.113256998808264,94.23297933756285,0.6599408388137817,-0.18741852045059204,-0.18042461574077606,0.7048390507698059
4fc4d850-388d-424f-96e9-53a92ea3ea2a,74f062f9-10a4-49e2-ab35-9246e443d047,1760515539991850928,3.591537,2.466202,-0.940323,-0.033203,-0.520996,0.880859,1.7469068309740439,-30.081607656904563,94.18102140223738,0.6603384613990784,-0.18744561076164246,-0.1800253689289093,0.7045615315437317
4fc4d850-388d-424f-96e9-53a92ea3ea2a,74f062f9-10a4-49e2-ab35-9246e443d047,1760515540002517928,3.471375,2.037048,0.097275,-0.035645,-0.501465,0.883301,1.7731606686013943,-30.046630376336857,94.11496559999348,0.6608362793922424,-0.18751074373722076,-0.17954929172992706,0.704198956489563
4fc4d850-388d-424f-96e9-53a92ea3ea2a,74f062f9-10a4-49e2-ab35-9246e443d047,1760515540013184928,3.65448,1.857758,0.463486,-0.039551,-0.503906,0.898437,1.7948362877874404,-30.010239262042465,94.05507783542022,0.66129070520401,-0.1875295639038086,-0.1791009157896042,0.7038815021514893
4fc4d850-388d-424f-96e9-53a92ea3ea2a,74f062f9-10a4-49e2-ab35-9246e443d047,1760515540023851928,3.896713,1.306534,0.829697,-0.046875,-0.510742,0.889648,1.8167250346105404,-29.973602445893277,94.0068971975148,0.6616736054420471,-0.18752959370613098,-0.17866893112659454,0.7036315202713013
4fc4d850-388d-424f-96e9-53a92ea3ea2a,74f062f9-10a4-49e2-ab35-9246e443d047,1760515540031853928,4.447937,0.816345,0.951767,-0.02832,-0.502441,0.897461,1.845661141081334,-29.8878322830381,93.90424322101683,0.662472128868103,-0.18737579882144928,-0.1778031289577484,0.7031404376029968
4fc4d850-388d-424f-96e9-53a92ea3ea2a,74f062f9-10a4-49e2-ab35-9246e443d047,1760515540039856928,4.507065,0.635147,1.195908,-0.024414,-0.493652,0.900391,1.8569265593438304,-29.83555406502233,93.92686800170374,0.6624257564544678,-0.18711040914058685,-0.17745155096054077,0.7033436298370361
4fc4d850-388d-424f-96e9-53a92ea3ea2a,74f062f9-10a4-49e2-ab35-9246e443d047,1760515540047859928,4.873276,0.818253,1.562119,-0.026855,-0.499023,0.887695,1.8700883225162839,-29.787582689616947,93.92186418005454,0.6625455021858215,-0.18692414462566376,-0.17707045376300812,0.7033764719963074
4fc4d850-388d-424f-96e9-53a92ea3ea2a,74f062f9-10a4-49e2-ab35-9246e443d047,1760515540055862928,5.119324,0.69809,1.379013,-0.018066,-0.481934,0.885254,1.8845309919276136,-29.733644324695984,93.86280038990664,0.6630073189735413,-0.18679481744766235,-0.17655688524246216,0.7031047940254211
4fc4d850-388d-424f-96e9-53a92ea3ea2a,74f062f9-10a4-49e2-ab35-9246e443d047,1760515540066609928,4.692078,0.572205,1.562119,-0.022949,-0.491699,0.893066,1.8935421178880627,-29.681016777098034,93.80948801702907,0.6634232997894287,-0.18663035333156586,-0.17609235644340515,0.702872633934021
4fc4d850-388d-424f-96e9-53a92ea3ea2a,74f062f9-10a4-49e2-ab35-9246e443d047,1760515540077356928,4.875183,0.75531,1.501083,-0.021973,-0.48291,0.888672,1.902802486034026,-29.631373729708347,93.75070004540054,0.6638687252998352,-0.18649254739284515,-0.17563606798648834,0.702602744102478
4fc4d850-388d-424f-96e9-53a92ea3ea2a,74f062f9-10a4-49e2-ab35-9246e443d047,1760515540088103928,4.264832,0.75531,1.256943,-0.01709,-0.487305,0.884277,1.9079473301576637,-29.58774091013553,93.68027460373386,0.6643703579902649,-0.18638138473033905,-0.1752219945192337,0.7022613883018494
4fc4d850-388d-424f-96e9-53a92ea3ea2a,74f062f9-10a4-49e2-ab35-9246e443d047,1760515540098672928,3.471375,0.026703,1.195908,-0.027832,-0.500488,0.883301,1.9128703303775714,-29.5566074850961,93.6037140630301,0.6648911833763123,-0.18634960055351257,-0.1748766005039215,0.7018629312515259
4fc4d850-388d-424f-96e9-53a92ea3ea2a,74f062f9-10a4-49e2-ab35-9246e443d047,1760515540109241928,3.042221,0.635147,0.707626,-0.01709,-0.483887,0.891113,1.9119981733217906,-29.520534663391683,93.52435455338221,0.665427029132843,-0.18625780940055847,-0.17452992498874664,0.7014656662940979
4fc4d850-388d-424f-96e9-53a92ea3ea2a,74f062f9-10a4-49e2-ab35-9246e443d047,1760515540119810928,2.614975,0.818253,0.28038,-0.016113,-0.499512,0.896484,1.9136727093030699,-29.490195588052373,93.52605123347608,0.6654622554779053,-0.18609093129634857,-0.17433568835258484,0.7015248537063599
4fc4d850-388d-424f-96e9-53a92ea3ea2a,74f062f9-10a4-49e2-ab35-9246e443d047,1760515540127851928,2.616882,0.938416,0.03624,-0.007812,-0.497559,0.88623,1.9139330826222536,-29.438900333308812,93.40451051218345,0.666279137134552,-0.1859818547964096,-0.173820361495018,0.7009060382843018
4fc4d850-388d-424f-96e9-53a92ea3ea2a,74f062f9-10a4-49e2-ab35-9246e443d047,1760515540135891928,2.370834,1.489639,-0.513077,-0.012207,-0.495605,0.900879,1.9175047577368607,-29.41254578444874,93.38467357114192,0.6664432287216187,-0.18588194251060486,-0.17360487580299377,0.7008299231529236
4fc4d850-388d-424f-96e9-53a92ea3ea2a,74f062f9-10a4-49e2-ab35-9246e443d047,1760515540143931928,2.679825,1.489639,-1.001358,-0.019043,-0.493652,0.907715,1.9145875125503269,-29.37853058455512,93.33564484948873,0.666786789894104,-0.18574227392673492,-0.17333261668682098,0.7006075382232666
4fc4d850-388d-424f-96e9-53a92ea3ea2a,74f062f9-10a4-49e2-ab35-9246e443d047,1760515540151971928,3.225327,1.489639,-1.550674,-0.016602,-0.500488,0.904785,1.9131230000265778,-29.34448917825649,93.23929433057661,0.6674216389656067,-0.18568256497383118,-0.17297521233558655,0.7001070380210876
4fc4d850-388d-424f-96e9-53a92ea3ea2a,74f062f9-10a4-49e2-ab35-9246e443d047,1760515540162580928,3.593445,1.548767,-2.038956,-0.021484,-0.479004,0.896973,1.9100555673373183,-29.304872652173845,93.12639233840382,0.6681625843048096,-0.18560530245304108,-0.1725662350654602,0.6995214819908142
4fc4d850-388d-424f-96e9-53a92ea3ea2a,74f062f9-10a4-49e2-ab35-9246e443d047,1760515540173189928,4.081726,1.857758,-2.344131,-0.005859,-0.487305,0.887207,1.9063695087458679,-29.26490875175539,93.00867311926095,0.6689319014549255,-0.18552885949611664,-0.17215123772621155,0.6989084482192993
4fc4d850-388d-424f-96e9-53a92ea3ea2a,74f062f9-10a4-49e2-ab35-9246e443d047,1760515540183798928,3.593445,2.403259,-2.710342,-0.013184,-0.48584,0.889648,1.9055655983952873,-29.22838921262118,92.91628747648322,0.6695456504821777,-0.18545125424861908,-0.17178188264369965,0.6984320878982544
4fc4d850-388d-424f-96e9-53a92ea3ea2a,74f062f9-10a4-49e2-ab35-9246e443d047,1760515540194485928,3.042221,3.137589,-3.564835,-0.023926,-0.469727,0.891113,1.9103390624904537,-29.19360278787119,92.82291506875995,0.6701709032058716,-0.18541865050792694,-0.17138917744159698,0.6979373693466187
4fc4d850-388d-424f-96e9-53a92ea3ea2a,74f062f9-10a4-49e2-ab35-9246e443d047,1760515540205172928,2.738953,3.684998,-3.992081,-0.028809,-0.480957,0.874512,1.9207893529509494,-29.163451204842104,92.72227335219645,0.6708418726921082,-0.18545778095722198,-0.1709800660610199,0.6973825693130493
4fc4d850-388d-424f-96e9-53a92ea3ea2a,74f062f9-10a4-49e2-ab35-9246e443d047,1760515540215859928,2.616882,3.810883,-4.480362,-0.037598,-0.48291,0.881348,1.9355299768938998,-29.13776691570466,92.64375458754895,0.6713778376579285,-0.18551546335220337,-0.17060907185077667,0.6969420909881592
4fc4d850-388d-424f-96e9-53a92ea3ea2a,74f062f9-10a4-49e2-ab35-9246e443d047,1760515540226523928,2.370834,4.297256,-4.907608,-0.03125,-0.468262,0.875488,1.9579497407154858,-29.08790301884379,92.4135012814623,0.6728806495666504,-0.18570388853549957,-0.1697990596294403,0.6956392526626587
4fc4d850-388d-424f-96e9-53a92ea3ea2a,74f062f9-10a4-49e2-ab35-9246e443d047,1760515540237188928,1.457214,4.478455,-5.090714,-0.033691,-0.478516,0.888672,1.9762222689642845,-29.071120965234137,92.32547713507589,0.6734656095504761,-0.185848206281662,-0.16944637894630432,0.6951171159744263
4fc4d850-388d-424f-96e9-53a92ea3ea2a,74f062f9-10a4-49e2-ab35-9246e443d047,1760515540247853928,1.274109,4.478455,-5.701065,-0.037109,-0.48584,0.896973,1.9919087398112385,-29.058790122755937,92.24969135684036,0.6739657521247864,-0.185983344912529,-0.1691557615995407,0.694667398929596
4fc4d850-388d-424f-96e9-53a92ea3ea2a,74f062f9-10a4-49e2-ab35-9246e443d047,1760515540255853928,0.907898,4.478455,-5.456924,-0.048828,-0.476074,0.885742,2.0136322614549504,-29.04354864812735,92.12987255559685,0.6747452616691589,-0.18620261549949646,-0.1687401682138443,0.693953275680542
4fc4d850-388d-424f-96e9-53a92ea3ea2a,74f062f9-10a4-49e2-ab35-9246e443d047,1760515540263855928,0.541687,4.173279,-5.334854,-0.052734,-0.484863,0.890625,2.0383330623516227,-29.03365055876027,92.0095713782138,0.6755236983299255,-0.18647119402885437,-0.1683385670185089,0.693221390247345
4fc4d850-388d-424f-96e9-53a92ea3ea2a,74f062f9-10a4-49e2-ab35-9246e443d047,1760515540271857928,0.600815,3.808975,-5.456924,-0.054199,-0.476074,0.880859,2.058609631078078,-29.02903441623547,91.89573857604204,0.6762482523918152,-0.18673382699489594,-0.16800543665885925,0.6925249695777893
4fc4d850-388d-424f-96e9-53a92ea3ea2a,74f062f9-10a4-49e2-ab35-9246e443d047,1760515540279859928,-0.007629,3.501892,-5.395889,-0.055664,-0.465332,0.885742,2.077078665793703,-29.018310403730982,91.8086444005715,0.6768165826797485,-0.18691019713878632,-0.1676890254020691,0.6919989585876465
4fc4d850-388d-424f-96e9-53a92ea3ea2a,74f062f9-10a4-49e2-ab35-9246e443d047,1760515540290533928,-0.1297,3.322601,-5.578995,-0.042969,-0.48291,0.882324,2.0880385800081847,-29.016894240928714,91.70396608895699,0.6774664521217346,-0.18712110817432404,-0.16744479537010193,0.6913650035858154
4fc4d850-388d-424f-96e9-53a92ea3ea2a,74f062f9-10a4-49e2-ab35-9246e443d047,1760515540301207928,-1.047134,3.076553,-5.273819,-0.05957,-0.473145,0.881836,2.101905413150042,-29.018517180723872,91.57204227910643,0.6782798767089844,-0.18740683794021606,-0.16715705394744873,0.6905592083930969
4fc4d850-388d-424f-96e9-53a92ea3ea2a,74f062f9-10a4-49e2-ab35-9246e443d047,1760515540311881928,-1.472473,2.037048,-4.968643,-0.058105,-0.47998,0.881348,2.1174480146142862,-29.027068148305247,91.56057406153603,0.6783595681190491,-0.18756739795207977,-0.1670982986688614,0.6904513239860535
4fc4d850-388d-424f-96e9-53a92ea3ea2a,74f062f9-10a4-49e2-ab35-9246e443d047,1760515540322561928,-2.145767,1.672745,-4.358292,-0.06543,-0.483398,0.880371,2.135980162008783,-29.052000944805926,91.48838342625581,0.6787861585617065,-0.1879306584596634,-0.16702188551425934,0.6899507641792297
4fc4d850-388d-424f-96e9-53a92ea3ea2a,74f062f9-10a4-49e2-ab35-9246e443d047,1760515540333241928,-2.632141,1.121521,-4.114151,-0.070801,-0.491211,0.895019,2.1421044314149498,-29.07188394153146,91.41240415716476,0.6792242527008057,-0.18819507956504822,-0.16698172688484192,0.6894563436508179
4fc4d850-388d-424f-96e9-53a92ea3ea2a,74f062f9-10a4-49e2-ab35-9246e443d047,1760515540343921928,-2.817154,0.329971,-3.87001,-0.068848,-0.485352,0.897461,2.143296478415411,-29.09141250037955,91.36715535695134,0.6794704794883728,-0.1883821189403534,-0.1670188307762146,0.6891565322875977
4fc4d850-388d-424f-96e9-53a92ea3ea2a,74f062f9-10a4-49e2-ab35-9246e443d047,1760515540351899928,-3.12233,-0.829697,-2.344131,-0.058594,-0.485352,0.892578,2.1411833318005575,-29.115753668485056,91.28818355787227,0.6799076199531555,-0.1886274814605713,-0.16704918444156647,0.6886507272720337
4fc4d850-388d-424f-96e9-53a92ea3ea2a,74f062f9-10a4-49e2-ab35-9246e443d047,1760515540359877928,-3.183365,-1.379013,-1.61171,-0.063477,-0.484863,0.901367,2.136319088530474,-29.13783755313163,91.20480176799686,0.680370032787323,-0.18884959816932678,-0.16707465052604675,0.688126802444458
4fc4d850-388d-424f-96e9-53a92ea3ea2a,74f062f9-10a4-49e2-ab35-9246e443d047,1760515540367855928,-2.937317,-1.869202,-1.001358,-0.06543,-0.494141,0.892578,2.1318612464496547,-29.1644536233341,91.12506700282783,0.6808042526245117,-0.1890956461429596,-0.16713093221187592,0.6876158714294434
4fc4d850-388d-424f-96e9-53a92ea3ea2a,74f062f9-10a4-49e2-ab35-9246e443d047,1760515540375833928,-3.181458,-2.052307,-0.085831,-0.064453,-0.494629,0.901855,2.1256986633374195,-29.186898234733295,91.08991622479985,0.6809741258621216,-0.18924200534820557,-0.16724546253681183,0.6873795390129089
4fc4d850-388d-424f-96e9-53a92ea3ea2a,74f062f9-10a4-49e2-ab35-9246e443d047,1760515540386504928,-2.815247,-2.235413,0.219345,-0.057129,-0.495117,0.89209,2.1217040337865494,-29.213628612464216,91.05642778761629,0.6811309456825256,-0.18942424654960632,-0.16737571358680725,0.6871422529220581
4fc4d850-388d-424f-96e9-53a92ea3ea2a,74f062f9-10a4-49e2-ab35-9246e443d047,1760515540397175928,-3.36647,-2.782822,0.768661,-0.047852,-0.491211,0.887207,2.11456684075984,-29.23585591780578,91.00829146600495,0.6813772916793823,-0.18958264589309692,-0.16747306287288666,0.6868305206298828
4fc4d850-388d-424f-96e9-53a92ea3ea2a,74f062f9-10a4-49e2-ab35-9246e443d047,1760515540407846928,-3.305435,-2.904892,1.379013,-0.053711,-0.503906,0.893555,2.1048308111668956,-29.2631165896685,90.99704994447995,0.6813913583755493,-0.18970125913619995,-0.16767728328704834,0.6867339611053467
4fc4d850-388d-424f-96e9-53a92ea3ea2a,74f062f9-10a4-49e2-ab35-9246e443d047,1760515540418497928,-3.120422,-3.334045,1.745224,-0.039062,-0.50293,0.895019,2.0765620864843974,-29.313253338755704,91.0004804937816,0.6812573671340942,-0.1898220330476761,-0.16815432906150818,0.6867169141769409
4fc4d850-388d-424f-96e9-53a92ea3ea2a,74f062f9-10a4-49e2-ab35-9246e443d047,1760515540429149928,-3.242493,-3.517151,1.867294,-0.033691,-0.490234,0.890137,2.057032165766821,-29.338859358792362,90.95754840052412,0.6814490556716919,-0.1899188607931137,-0.16835416853427887,0.6864508986473083
4fc4d850-388d-424f-96e9-53a92ea3ea2a,74f062f9-10a4-49e2-ab35-9246e443d047,1760515540439801928,-3.059387,-4.127502,1.867294,-0.038574,-0.501465,0.882324,2.0329754440065337,-29.366095946240833,90.92160597826597,0.681589663028717,-0.18998807668685913,-0.16860230267047882,0.6862311959266663
4fc4d850-388d-424f-96e9-53a92ea3ea2a,74f062f9-10a4-49e2-ab35-9246e443d047,1760515540450493928,-3.730774,-4.493713,2.111435,-0.027832,-0.510254,0.891113,2.0023525871919308,-29.396241080418104,90.888515977722,0.6816990971565247,-0.19003109633922577,-0.16891174018383026,0.6860344409942627
4fc4d850-388d-424f-96e9-53a92ea3ea2a,74f062f9-10a4-49e2-ab35-9246e443d047,1760515540461188928,-3.36647,-4.369736,1.745224,-0.024414,-0.493652,0.899414,1.9725392992357473,-29.424239904063064,90.85274837010766,0.6818286180496216,-0.19007045030593872,-0.1691989004611969,0.6858240365982056
4fc4d850-388d-424f-96e9-53a92ea3ea2a,74f062f9-10a4-49e2-ab35-9246e443d047,1760515540471883928,-3.671646,-4.125595,1.501083,-0.007812,-0.498535,0.880371,1.9359387030344333,-29.455725752052285,90.80355482281078,0.6820231080055237,-0.19010981917381287,-0.1695251762866974,0.6855391263961792
4fc4d850-388d-424f-96e9-53a92ea3ea2a,74f062f9-10a4-49e2-ab35-9246e443d047,1760515540479884928,-3.854752,-3.576279,1.379013,-0.014648,-0.519531,0.891113,1.864262698733261,-29.522959612255303,90.78141660546297,0.681951105594635,-0.19011050462722778,-0.17032068967819214,0.6854133605957031
4fc4d850-388d-424f-96e9-53a92ea3ea2a,74f062f9-10a4-49e2-ab35-9246e443d047,1760515540487887928,-3.793716,-3.576279,0.768661,-0.015625,-0.516113,0.888184,1.8316240263051429,-29.560599374944278,90.71120749408922,0.6822671890258789,-0.19024193286895752,-0.17062541842460632,0.6849863529205322
4fc4d850-388d-424f-96e9-53a92ea3ea2a,74f062f9-10a4-49e2-ab35-9246e443d047,1760515540495890928,-4.096985,-3.456116,0.341415,-0.004883,-0.506348,0.888672,1.7939911077551747,-29.597952479023682,90.66550293382187,0.682429313659668,-0.1903057098388672,-0.1709987074136734,0.6847139596939087
4fc4d850-388d-424f-96e9-53a92ea3ea2a,74f062f9-10a4-49e2-ab35-9246e443d047,1760515540503893928,-3.793716,-3.271103,0.097275,-0.016113,-0.503418,0.893066,1.7577575965605672,-29.63092235537132,90.67121924480485,0.6822924017906189,-0.19027535617351532,-0.1714225709438324,0.684752881526947
4fc4d850-388d-424f-96e9-53a92ea3ea2a,74f062f9-10a4-49e2-ab35-9246e443d047,1760515540514548928,-4.096985,-3.391266,-0.146866,-0.009277,-0.519043,0.894531,1.718937120527253,-29.669967384922245,90.62773036104899,0.6824363470077515,-0.19033919274806976,-0.1718166470527649,0.684492826461792
4fc4d850-388d-424f-96e9-53a92ea3ea2a,74f062f9-10a4-49e2-ab35-9246e443d047,1760515540525203928,-4.096985,-3.211975,-0.329971,-0.002441,-0.523926,0.875,1.6827665208836038,-29.711361887745664,90.57149592312884,0.682656466960907,-0.1904522031545639,-0.17218779027462006,0.6841485500335693
4fc4d850-388d-424f-96e9-53a92ea3ea2a,74f062f9-10a4-49e2-ab35-9246e443d047,1760515540535858928,-4.343033,-2.660751,-0.757217,-0.025879,-0.509766,0.891113,1.6576687903630918,-29.749763869640052,90.51468538644286,0.6829006671905518,-0.19061487913131714,-0.17247384786605835,0.6837873458862305
4fc4d850-388d-424f-96e9-53a92ea3ea2a,74f062f9-10a4-49e2-ab35-9246e443d047,1760515540546514928,-3.730774,-2.052307,-1.428604,-0.01123,-0.503906,0.889648,1.623416131493863,-29.784021708549087,90.46316734077332,0.6831052899360657,-0.1906907856464386,-0.17279821634292603,0.6834797859191895
4fc4d850-388d-424f-96e9-53a92ea3ea2a,74f062f9-10a4-49e2-ab35-9246e443d047,1760515540557173928,-3.545761,-1.928329,-1.916885,-0.005371,-0.521973,0.885742,1.5882817465217571,-29.82088444720062,90.42893126829355,0.683201253414154,-0.1907510608434677,-0.17317216098308563,0.6832723617553711
4fc4d850-388d-424f-96e9-53a92ea3ea2a,74f062f9-10a4-49e2-ab35-9246e443d047,1760515540567832928,-3.425598,-1.686096,-2.283096,-0.021973,-0.500977,0.882812,1.5574739204248285,-29.854415893021667,90.37090736179647,0.6834502220153809,-0.19085367023944855,-0.17346060276031494,0.6829214096069336
4fc4d850-388d-424f-96e9-53a92ea3ea2a,74f062f9-10a4-49e2-ab35-9246e443d047,1760515540578486928,-3.793716,-1.623154,-2.283096,-0.018555,-0.508789,0.889648,1.4916967204721365,-29.927131222904265,90.3181228465498,0.6835553646087646,-0.1909724771976471,-0.17420132458209991,0.6825942993164062
4fc4d850-388d-424f-96e9-53a92ea3ea2a,74f062f9-10a4-49e2-ab35-9246e443d047,1760515540589142928,-3.547668,-1.075745,-2.832413,-0.018066,-0.520508,0.89209,1.4627929843255814,-29.961782065796182,90.24733281132268,0.6838805079460144,-0.1911133974790573,-0.17446352541446686,0.6821619868278503
4fc4d850-388d-424f-96e9-53a92ea3ea2a,74f062f9-10a4-49e2-ab35-9246e443d047,1760515540599798928,-3.36647,-0.219345,-3.076553,-0.015137,-0.531738,0.880859,1.4404359960606186,-29.99749525986928,90.17587405379867,0.6842175126075745,-0.19130098819732666,-0.17469172179698944,0.681712806224823
4fc4d850-388d-424f-96e9-53a92ea3ea2a,74f062f9-10a4-49e2-ab35-9246e443d047,1760515540607829928,-3.059387,-0.099182,-3.931046,-0.004883,-0.524902,0.893066,1.4172111359656883,-30.033868405810832,90.1379868383297,0.6843520998954773,-0.19143640995025635,-0.17498493194580078,0.681464433670044
4fc4d850-388d-424f-96e9-53a92ea3ea2a,74f062f9-10a4-49e2-ab35-9246e443d047,1760515540615862928,-3.05748,0.146866,-3.87001,-0.004883,-0.522949,0.887695,1.3883185446178397,-30.065619668930456,90.08308709364883,0.6845859289169312,-0.19153696298599243,-0.17525579035282135,0.6811315417289734
4fc4d850-388d-424f-96e9-53a92ea3ea2a,74f062f9-10a4-49e2-ab35-9246e443d047,1760515540623895928,-3.000259,-0.03624,-3.87001,-0.024902,-0.52002,0.88623,1.3718726066596452,-30.09462780561661,90.00996904568963,0.6849508881568909,-0.19172337651252747,-0.17540527880191803,0.6806734204292297
4fc4d850-388d-424f-96e9-53a92ea3ea2a,74f062f9-10a4-49e2-ab35-9246e443d047,1760515540631928928,-2.817154,-0.463486,-4.114151,-0.034668,-0.520508,0.894043,1.3560584419473478,-30.12166523289285,89.91926769053381,0.6854237914085388,-0.19192899763584137,-0.17550957202911377,0.6801123023033142
4fc4d850-388d-424f-96e9-53a92ea3ea2a,74f062f9-10a4-49e2-ab35-9246e443d047,1760515540642570928,-2.14386,-0.526428,-3.992081,-0.03125,-0.525391,0.895996,1.3359476602513625,-30.145393292745272,89.83972805869948,0.685828447341919,-0.19207264482975006,-0.17563830316066742,0.6796303391456604
4fc4d850-388d-424f-96e9-53a92ea3ea2a,74f062f9-10a4-49e2-ab35-9246e443d047,1760515540653212928,-2.023697,-0.829697,-3.62587,-0.030762,-0.523926,0.899902,1.3163133809713543,-30.1664251411737,89.78364476096519,0.6860985159873962,-0.19216735661029816,-0.1757872998714447,0.6792923212051392
4fc4d850-388d-424f-96e9-53a92ea3ea2a,74f062f9-10a4-49e2-ab35-9246e443d047,1760515540663854928,-1.657486,-0.829697,-3.320694,-0.027832,-0.520996,0.893066,1.295834205924842,-30.185499457534565,89.68019685682395,0.6866506338119507,-0.19231830537319183,-0.17585013806819916,0.67867511510849
4fc4d850-388d-424f-96e9-53a92ea3ea2a,74f062f9-10a4-49e2-ab35-9246e443d047,1760515540674515928,-1.23024,-1.379013,-3.015518,-0.041016,-0.510742,0.905762,1.2631380154754106,-30.201353152671814,89.55450859549032,0.6873199343681335,-0.19241216778755188,-0.17592957615852356,0.6779500246047974
4fc4d850-388d-424f-96e9-53a92ea3ea2a,74f062f9-10a4-49e2-ab35-9246e443d047,1760515540685176928,-1.106262,-1.255035,-2.405167,-0.034668,-0.533203,0.888184,1.244946565584219,-30.211950357878855,89.52749329008162,0.6874353885650635,-0.19240926206111908,-0.1760563999414444,0.6778007745742798
4fc4d850-388d-424f-96e9-53a92ea3ea2a,74f062f9-10a4-49e2-ab35-9246e443d047,1760515540695837928,-0.741959,-1.562119,-1.916885,-0.042969,-0.517578,0.896973,1.2338747536723993,-30.218341555314513,89.47306765834587,0.6877303123474121,-0.19246554374694824,-0.1760694533586502,0.6774821281433105
4fc4d850-388d-424f-96e9-53a92ea3ea2a,74f062f9-10a4-49e2-ab35-9246e443d047,1760515540706505928,-0.680923,-2.782822,-0.329971,-0.031738,-0.51709,0.881836,1.2143491888123723,-30.22571346438161,89.45400620734955,0.6878015398979187,-0.19242341816425323,-0.17619846761226654,0.6773881912231445
4fc4d850-388d-424f-96e9-53a92ea3ea2a,74f062f9-10a4-49e2-ab35-9246e443d047,1760515540717176928,-0.741959,-2.477646,0.15831,-0.038086,-0.516113,0.885742,1.201676809347033,-30.232889419406877,89.43695338003766,0.6878716945648193,-0.19241757690906525,-0.17628856003284454,0.6772951483726501
4fc4d850-388d-424f-96e9-53a92ea3ea2a,74f062f9-10a4-49e2-ab35-9246e443d047,1760515540727847928,-0.679016,-2.662659,1.012802,-0.044922,-0.521973,0.883301,1.1922535252640707,-30.242318249645244,89.40412009829798,0.6880365610122681,-0.19246871769428253,-0.1763460338115692,0.6770980954170227
4fc4d850-388d-424f-96e9-53a92ea3ea2a,74f062f9-10a4-49e2-ab35-9246e443d047,1760515540735838928,-0.921249,-2.782822,1.623154,-0.025391,-0.526855,0.893066,1.175616286938218,-30.257755496608937,89.30865199674402,0.6885507702827454,-0.19260960817337036,-0.17637725174427032,0.6765269041061401
4fc4d850-388d-424f-96e9-53a92ea3ea2a,74f062f9-10a4-49e2-ab35-9246e443d047,1760515540743827928,-1.106262,-2.902985,2.0504,-0.033691,-0.507324,0.875,1.1683212488703043,-30.2657245225203,89.29523393026261,0.688606321811676,-0.19263483583927155,-0.1764458417892456,0.6764452457427979
4fc4d850-388d-424f-96e9-53a92ea3ea2a,74f062f9-10a4-49e2-ab35-9246e443d047,1760515540751816928,-0.923157,-3.334045,2.965927,-0.026367,-0.519043,0.88623,1.1551684829485018,-30.273779536524607,89.28695568243651,0.6886223554611206,-0.19261808693408966,-0.17655877768993378,0.6764042377471924
4fc4d850-388d-424f-96e9-53a92ea3ea2a,74f062f9-10a4-49e2-ab35-9246e443d047,1760515540759805928,-0.864029,-3.820419,3.149033,-0.02002,-0.52832,0.888184,1.139962996740877,-30.28229140289018,89.27583447350273,0.6886512637138367,-0.19259637594223022,-0.1766819804906845,0.6763487458229065
4fc4d850-388d-424f-96e9-53a92ea3ea2a,74f062f9-10a4-49e2-ab35-9246e443d047,1760515540767814928,-0.801086,-3.879547,3.515244,-0.009766,-0.52832,0.899902,1.1231165676311314,-30.285968557580887,89.33796837959788,0.6882526874542236,-0.1924230307340622,-0.176909402012825,0.6767442226409912
4fc4d850-388d-424f-96e9-53a92ea3ea2a,74f062f9-10a4-49e2-ab35-9246e443d047,1760515540775823928,-0.432968,-4.552841,3.332138,-0.010254,-0.516113,0.88623,1.0969638048717392,-30.288271552050684,89.3710744350708,0.6880131363868713,-0.1922311633825302,-0.17713569104671478,0.676983118057251
4fc4d850-388d-424f-96e9-53a92ea3ea2a,74f062f9-10a4-49e2-ab35-9246e443d047,1760515540783832928,-0.009537,-4.552841,3.576279,-0.005859,-0.522461,0.887207,1.069746123151964,-30.289341251084394,89.35348585954608,0.6880732774734497,-0.19210396707057953,-0.17727597057819366,0.6769213676452637
4fc4d850-388d-424f-96e9-53a92ea3ea2a,74f062f9-10a4-49e2-ab35-9246e443d047,1760515540791841928,0.175476,-4.615784,3.393173,-0.012207,-0.513184,0.876465,1.0491362190756939,-30.28713178487531,89.34407161157918,0.6881004571914673,-0.19198359549045563,-0.1773708313703537,0.6769030094146729
4fc4d850-388d-424f-96e9-53a92ea3ea2a,74f062f9-10a4-49e2-ab35-9246e443d047,1760515540803830928,0.234604,-4.796982,2.965927,-0.000977,-0.501465,0.883301,1.016483721655463,-30.28224802246277,89.33845283993392,0.6880907416343689,-0.19177021086215973,-0.1775285005569458,0.6769320964813232
4fc4d850-388d-424f-96e9-53a92ea3ea2a,74f062f9-10a4-49e2-ab35-9246e443d047,1760515540815822928,-0.312805,-4.367828,2.29454,-0.002441,-0.513672,0.873047,0.9829735727600991,-30.283474754741945,89.33494384822198,0.6880576014518738,-0.1915850192308426,-0.17773112654685974,0.676965057849884
4fc4d850-388d-424f-96e9-53a92ea3ea2a,74f062f9-10a4-49e2-ab35-9246e443d047,1760515540827814928,-0.558853,-4.369736,2.111435,0.009277,-0.517578,0.882324,0.9452227677062985,-30.288257252172475,89.31431959029942,0.6881133317947388,-0.19142262637615204,-0.17795172333717346,0.676896333694458
4fc4d850-388d-424f-96e9-53a92ea3ea2a,74f062f9-10a4-49e2-ab35-9246e443d047,1760515540839806928,-0.801086,-3.944397,1.867294,-0.007812,-0.524414,0.879883,0.9141228658516904,-30.292798784793845,89.2795280401144,0.6882633566856384,-0.19132015109062195,-0.1781073361635208,0.6767318248748779
4fc4d850-388d-424f-96e9-53a92ea3ea2a,74f062f9-10a4-49e2-ab35-9246e443d047,1760515540850490928,-0.862122,-3.517151,1.440048,-0.01123,-0.515625,0.870605,0.8477601529235979,-30.31132364742983,89.301826305144,0.6879991292953491,-0.19100427627563477,-0.17865292727947235,0.6769458055496216
4fc4d850-388d-424f-96e9-53a92ea3ea2a,74f062f9-10a4-49e2-ab35-9246e443d047,1760515540861174928,-1.106262,-3.15094,1.134872,-0.004395,-0.522461,0.88916,0.8241047271110827,-30.322089011984744,89.26073992764024,0.6881878972053528,-0.1909930408000946,-0.17879033088684082,0.6767207384109497
4fc4d850-388d-424f-96e9-53a92ea3ea2a,74f062f9-10a4-49e2-ab35-9246e443d047,1760515540871858928,-1.169205,-2.965927,1.134872,-0.01123,-0.52002,0.882324,0.8008904885232785,-30.33146440237091,89.25533094337987,0.6881687641143799,-0.19092050194740295,-0.17897631227970123,0.6767114400863647
4fc4d850-388d-424f-96e9-53a92ea3ea2a,74f062f9-10a4-49e2-ab35-9246e443d047,1760515540879852928,-0.801086,-2.540588,1.501083,-0.004883,-0.512207,0.887207,0.7820589451324819,-30.339279170786654,89.26497568960745,0.6880699992179871,-0.1908409744501114,-0.17915178835391998,0.6767878532409668
4fc4d850-388d-424f-96e9-53a92ea3ea2a,74f062f9-10a4-49e2-ab35-9246e443d047,1760515540887846928,-0.801086,-2.597809,1.317978,0.001465,-0.515137,0.890137,0.7624448651313555,-30.345298370355824,89.23539506473601,0.6882044672966003,-0.19080744683742523,-0.17925599217414856,0.6766328811645508
4fc4d850-388d-424f-96e9-53a92ea3ea2a,74f062f9-10a4-49e2-ab35-9246e443d047,1760515540895840928,-0.741959,-2.416611,1.379013,0.008789,-0.515625,0.891602,0.7382767515457735,-30.35021538808528,89.19014997250338,0.6884259581565857,-0.19076499342918396,-0.1793549656867981,0.6763932704925537
4fc4d850-388d-424f-96e9-53a92ea3ea2a,74f062f9-10a4-49e2-ab35-9246e443d047,1760515540903834928,-0.923157,-2.235413,1.440048,0.0,-0.522461,0.882812,0.7196402392461537,-30.35836704012672,89.13841828777187,0.688689112663269,-0.19078481197357178,-0.1794290989637375,0.6761000752449036
4fc4d850-388d-424f-96e9-53a92ea3ea2a,74f062f9-10a4-49e2-ab35-9246e443d047,1760515540914500928,-0.801086,-2.174377,1.440048,-0.000977,-0.512207,0.884277,0.7045391608499164,-30.36600115853938,89.1206000138938,0.6887584328651428,-0.19076937437057495,-0.1795353889465332,0.6760055422782898
4fc4d850-388d-424f-96e9-53a92ea3ea2a,74f062f9-10a4-49e2-ab35-9246e443d047,1760515540925166928,-0.558853,-1.806259,1.379013,-0.011719,-0.508301,0.890625,0.6913181659337906,-30.371387127641807,89.10390226778131,0.688827633857727,-0.19074982404708862,-0.1796189397573471,0.6759183406829834
4fc4d850-388d-424f-96e9-53a92ea3ea2a,74f062f9-10a4-49e2-ab35-9246e443d047,1760515540935832928,-0.495911,-1.502991,1.317978,-0.015137,-0.524414,0.884766,0.6827553570436586,-30.381575485498395,89.08801894747734,0.6888916492462158,-0.19078530371189117,-0.17970426380634308,0.6758202910423279
4fc4d850-388d-424f-96e9-53a92ea3ea2a,74f062f9-10a4-49e2-ab35-9246e443d047,1760515540946505928,-0.253677,-1.317978,1.195908,-0.008789,-0.526367,0.88623,0.6602887899924202,-30.39644084921347,89.19729206326294,0.6881878972053528,-0.19057025015354156,-0.18010908365249634,0.6764897704124451
4fc4d850-388d-424f-96e9-53a92ea3ea2a,74f062f9-10a4-49e2-ab35-9246e443d047,1760515540957176928,-0.312805,-1.319885,1.012802,0.004395,-0.522949,0.887207,0.6467314640194788,-30.398022571623112,89.16655580124474,0.6883454918861389,-0.19054800271987915,-0.18014876544475555,0.6763251423835754
4fc4d850-388d-424f-96e9-53a92ea3ea2a,74f062f9-10a4-49e2-ab35-9246e443d047,1760515540967847928,-0.375748,-1.195908,1.012802,-0.000977,-0.529297,0.891602,0.632692573357123,-30.40279768939622,89.13757557989045,0.6884868144989014,-0.19053934514522552,-0.18021318316459656,0.6761664748191833
4fc4d850-388d-424f-96e9-53a92ea3ea2a,74f062f9-10a4-49e2-ab35-9246e443d047,1760515540978497928,-0.007629,-1.014709,0.524521,-0.006348,-0.515137,0.890625,0.6305371698077098,-30.400195188254163,89.112308432337,0.6886366605758667,-0.1905507594347,-0.18016871809959412,0.6760225296020508
4fc4d850-388d-424f-96e9-53a92ea3ea2a,74f062f9-10a4-49e2-ab35-9246e443d047,1760515540989146928,0.234604,-0.707626,0.463486,0.004883,-0.516113,0.885254,0.6243033680918252,-30.400383745404042,89.05125237879702,0.6889866590499878,-0.1906111091375351,-0.1801057606935501,0.675665557384491
4fc4d850-388d-424f-96e9-53a92ea3ea2a,74f062f9-10a4-49e2-ab35-9246e443d047,1760515540999795928,0.112534,-0.707626,0.097275,-0.003418,-0.516113,0.883301,0.6206813794278997,-30.401611584457203,88.99967115662426,0.6892830729484558,-0.1906781643629074,-0.18004898726940155,0.6753594279289246
4fc4d850-388d-424f-96e9-53a92ea3ea2a,74f062f9-10a4-49e2-ab35-9246e443d047,1760515541007806928,0.663757,-0.94986,-0.146866,-0.004883,-0.511719,0.883789,0.6117519016605151,-30.40448822023491,88.96872357052744,0.6894468069076538,-0.19069144129753113,-0.1800682097673416,0.6751833558082581
4fc4d850-388d-424f-96e9-53a92ea3ea2a,74f062f9-10a4-49e2-ab35-9246e443d047,1760515541015817928,0.175476,-0.831604,-0.146866,-0.005371,-0.520508,0.888184,0.6099370466352032,-30.403168666405026,88.96005998302341,0.6894971132278442,-0.19068643450737,-0.18005691468715668,0.6751364469528198
4fc4d850-388d-424f-96e9-53a92ea3ea2a,74f062f9-10a4-49e2-ab35-9246e443d047,1760515541023828928,0.173569,-1.134872,-0.391006,-0.006348,-0.519043,0.878418,0.6080706085144493,-30.404230079138085,88.90793936745786,0.6897994875907898,-0.1907636970281601,-0.17998766899108887,0.6748241186141968
4fc4d850-388d-424f-96e9-53a92ea3ea2a,74f062f9-10a4-49e2-ab35-9246e443d047,1760515541031839928,-0.375748,-0.707626,-0.329971,0.008789,-0.529785,0.873047,0.6009302096427717,-30.40659972806755,88.8869771862744,0.6899079084396362,-0.19076880812644958,-0.18000975251197815,0.6747059226036072
4fc4d850-388d-424f-96e9-53a92ea3ea2a,74f062f9-10a4-49e2-ab35-9246e443d047,1760515541042536928,-0.253677,-0.768661,-0.574112,-0.011719,-0.523926,0.874023,0.599100014090998,-30.411987193001494,88.92481426199902,0.6896736025810242,-0.19073034822940826,-0.18011556565761566,0.6749300956726074
4fc4d850-388d-424f-96e9-53a92ea3ea2a,74f062f9-10a4-49e2-ab35-9246e443d047,1760515541053233928,-0.37384,-0.404358,-0.574112,-0.019043,-0.513672,0.881348,0.6019647830568624,-30.41180705070373,88.89903977039839,0.6898301839828491,-0.19078664481639862,-0.18005435168743134,0.6747704744338989
4fc4d850-388d-424f-96e9-53a92ea3ea2a,74f062f9-10a4-49e2-ab35-9246e443d047,1760515541063930928,-0.192642,-0.15831,-0.391006,-0.009277,-0.518555,0.897461,0.6017008932068869,-30.410980885802804,88.85545775233935,0.6900876760482788,-0.19084860384464264,-0.17997848987579346,0.6745098233222961
4fc4d850-388d-424f-96e9-53a92ea3ea2a,74f062f9-10a4-49e2-ab35-9246e443d047,1760515541074552928,0.055313,0.329971,-0.513077,-0.007812,-0.52832,0.888672,0.6015353087499722,-30.41356422496968,88.80102770417491,0.6904035806655884,-0.19094860553741455,-0.1799040585756302,0.6741780638694763
4fc4d850-388d-424f-96e9-53a92ea3ea2a,74f062f9-10a4-49e2-ab35-9246e443d047,1760515541085173928,0.112534,0.696182,-0.391006,0.000488,-0.525879,0.884766,0.5991860030347814,-30.41556575352739,88.78004643538507,0.6905201077461243,-0.1909797638654709,-0.1798950582742691,0.6740522384643555
4fc4d850-388d-424f-96e9-53a92ea3ea2a,74f062f9-10a4-49e2-ab35-9246e443d047,1760515541095794928,0.234604,0.268936,-0.329971,-0.002441,-0.513184,0.881348,0.5962548182992924,-30.412682200856676,88.76755638197949,0.6905936002731323,-0.19096480309963226,-0.17987489700317383,0.673986554145813
4fc4d850-388d-424f-96e9-53a92ea3ea2a,74f062f9-10a4-49e2-ab35-9246e443d047,1760515541106470928,0.417709,-0.03624,-0.207901,-0.003418,-0.504395,0.888672,0.5984401334462995,-30.404654839248256,88.6484018870217,0.6913103461265564,-0.1911168247461319,-0.17961575090885162,0.6732754707336426
4fc4d850-388d-424f-96e9-53a92ea3ea2a,74f062f9-10a4-49e2-ab35-9246e443d047,1760515541117146928,0.600815,-0.03624,-0.207901,-0.003418,-0.517578,0.882324,0.5983164744812138,-30.4038192168379,88.62439971708658,0.6914525032043457,-0.19114868342876434,-0.17957153916358948,0.6731322407722473
4fc4d850-388d-424f-96e9-53a92ea3ea2a,74f062f9-10a4-49e2-ab35-9246e443d047,1760515541127822928,0.722885,0.085831,0.03624,-0.014648,-0.514648,0.887695,0.5998050876217121,-30.400319127169475,88.58684483091028,0.6916810274124146,-0.19119518995285034,-0.17947928607463837,0.6729088425636292
4fc4d850-388d-424f-96e9-53a92ea3ea2a,74f062f9-10a4-49e2-ab35-9246e443d047,1760515541135878928,0.417709,0.268936,0.341415,-0.006348,-0.521484,0.880859,0.598576690181946,-30.400499424841524,88.57987997797966,0.6917197108268738,-0.19119998812675476,-0.17947614192962646,0.6728684902191162
4fc4d850-388d-424f-96e9-53a92ea3ea2a,74f062f9-10a4-49e2-ab35-9246e443d047,1760515541143934928,-0.007629,0.083923,0.341415,-0.013184,-0.506836,0.881836,0.5977434193466952,-30.39751572806085,88.6215772261509,0.6914783120155334,-0.19111180305480957,-0.17953315377235413,0.6731264591217041
4fc4d850-388d-424f-96e9-53a92ea3ea2a,74f062f9-10a4-49e2-ab35-9246e443d047,1760515541151990928,0.295639,0.146866,0.15831,-0.007812,-0.50293,0.882812,0.599135028130957,-30.395956633548714,88.5851904065955,0.6916967034339905,-0.19116757810115814,-0.17945487797260284,0.6729071140289307
4fc4d850-388d-424f-96e9-53a92ea3ea2a,74f062f9-10a4-49e2-ab35-9246e443d047,1760515541160046928,-0.070572,0.024796,0.097275,-0.005859,-0.512207,0.892578,0.5987764542989631,-30.391355395989567,88.52437043743768,0.6920605897903442,-0.19123297929763794,-0.17932847142219543,0.6725479960441589
4fc4d850-388d-424f-96e9-53a92ea3ea2a,74f062f9-10a4-49e2-ab35-9246e443d047,1760515541170659928,0.053406,-0.404358,0.28038,-0.012207,-0.516602,0.888672,0.6011785379021937,-30.38613194954602,88.47532746718744,0.692360520362854,-0.19129231572151184,-0.17920136451721191,0.6722562909126282
4fc4d850-388d-424f-96e9-53a92ea3ea2a,74f062f9-10a4-49e2-ab35-9246e443d047,1760515541181272928,-0.314713,-0.15831,0.03624,0.002441,-0.513184,0.890137,0.5986840420745959,-30.383772711450245,88.42989469002254,0.6926268935203552,-0.19133451581001282,-0.17912670969963074,0.6719896793365479
4fc4d850-388d-424f-96e9-53a92ea3ea2a,74f062f9-10a4-49e2-ab35-9246e443d047,1760515541191885928,-0.679016,-0.038147,0.219345,-0.01123,-0.519043,0.883789,0.5994174851788677,-30.38279298467103,88.39270486762342,0.6928476691246033,-0.1913910210132599,-0.1790544092655182,0.6717652678489685
4fc4d850-388d-424f-96e9-53a92ea3ea2a,74f062f9-10a4-49e2-ab35-9246e443d047,1760515541199882928,-0.375748,-0.219345,-0.085831,0.003906,-0.516113,0.894531,0.5930840069993625,-30.37769973565872,88.3053587556124,0.6933578252792358,-0.19145961105823517,-0.17891687154769897,0.6712558269500732
4fc4d850-388d-424f-96e9-53a92ea3ea2a,74f062f9-10a4-49e2-ab35-9246e443d047,1760515541207882928,-0.432968,0.207901,-0.085831,-0.007324,-0.520996,0.882812,0.5924105378212933,-30.377354272795184,88.33438183429637,0.6931872963905334,-0.19140824675559998,-0.1789674013853073,0.67143315076828
4fc4d850-388d-424f-96e9-53a92ea3ea2a,74f062f9-10a4-49e2-ab35-9246e443d047,1760515541215882928,-0.862122,0.083923,-0.696182,-0.00293,-0.507812,0.884277,0.5879546619324361,-30.375209565648483,88.31137120264144,0.6933186054229736,-0.19140513241291046,-0.17894332110881805,0.6713048815727234
4fc4d850-388d-424f-96e9-53a92ea3ea2a,74f062f9-10a4-49e2-ab35-9246e443d047,1760515541223882928,-0.864029,0.513077,-0.329971,-0.008789,-0.507812,0.88916,0.5880420179533765,-30.37128344346233,88.28677005039748,0.6934691667556763,-0.19142037630081177,-0.17887863516807556,0.6711621880531311
4fc4d850-388d-424f-96e9-53a92ea3ea2a,74f062f9-10a4-49e2-ab35-9246e443d047,1760515541234518928,-0.923157,0.450134,-0.940323,-0.012695,-0.516113,0.889648,0.5895641150120132,-30.37447208735329,88.30682390005423,0.6933489441871643,-0.19141721725463867,-0.1789216548204422,0.6712758541107178
4fc4d850-388d-424f-96e9-53a92ea3ea2a,74f062f9-10a4-49e2-ab35-9246e443d047,1760515541245154928,-0.921249,0.513077,-0.635147,-0.01123,-0.523926,0.881348,0.5878374340877783,-30.38110526354827,88.30835565093597,0.6933265924453735,-0.1914447546005249,-0.17897363007068634,0.6712771654129028
4fc4d850-388d-424f-96e9-53a92ea3ea2a,74f062f9-10a4-49e2-ab35-9246e443d047,1760515541255790928,-1.533508,0.389099,-0.574112,-0.01416,-0.522461,0.883789,0.5871739819716916,-30.397090954788826,88.2745842514936,0.6934975981712341,-0.1915901154279709,-0.17901510000228882,0.6710478663444519
4fc4d850-388d-424f-96e9-53a92ea3ea2a,74f062f9-10a4-49e2-ab35-9246e443d047,1760515541266472928,-1.289368,0.083923,-0.329971,-0.014648,-0.530273,0.883301,0.5880408098511305,-30.41280117492882,88.23158857110518,0.6937253475189209,-0.1917572021484375,-0.179030179977417,0.6707606315612793
4fc4d850-388d-424f-96e9-53a92ea3ea2a,74f062f9-10a4-49e2-ab35-9246e443d047,1760515541277155928,-1.716614,-0.099182,-0.268936,-0.006836,-0.519531,0.885742,0.5873139944494067,-30.41976189617664,88.19826648950803,0.6939080357551575,-0.19184648990631104,-0.17901965975761414,0.6705508828163147
4fc4d850-388d-424f-96e9-53a92ea3ea2a,74f062f9-10a4-49e2-ab35-9246e443d047,1760515541287838928,-1.472473,0.209808,-0.329971,-0.009277,-0.529785,0.88916,0.5838175556531879,-30.437010344187165,88.17569209117771,0.6940068006515503,-0.1919654905796051,-0.17910423874855042,0.6703919768333435
4fc4d850-388d-424f-96e9-53a92ea3ea2a,74f062f9-10a4-49e2-ab35-9246e443d047,1760515541298502928,-1.350403,0.083923,-0.513077,-0.015137,-0.530273,0.885742,0.5876402115879333,-30.46369771691623,88.09535944169241,0.6944394111633301,-0.19227463006973267,-0.17910291254520416,0.6698555946350098
4fc4d850-388d-424f-96e9-53a92ea3ea2a,74f062f9-10a4-49e2-ab35-9246e443d047,1760515541309166928,-0.864029,0.329971,-0.268936,-0.003418,-0.521973,0.891113,0.5858705763483001,-30.46322640189627,88.11151341248602,0.6943429708480835,-0.19223618507385254,-0.1791379749774933,0.6699572205543518
4fc4d850-388d-424f-96e9-53a92ea3ea2a,74f062f9-10a4-49e2-ab35-9246e443d047,1760515541319830928,-0.740051,0.389099,-0.268936,-0.00293,-0.518555,0.890137,0.581668198588808,-30.464297557687637,88.10619871878225,0.6943657398223877,-0.19222639501094818,-0.17916080355644226,0.6699303388595581
4fc4d850-388d-424f-96e9-53a92ea3ea2a,74f062f9-10a4-49e2-ab35-9246e443d047,1760515541327832928,-0.434875,0.267029,-0.635147,0.0,-0.518555,0.895019,0.5790750139200325,-30.46401326342869,88.063815760406,0.6946098804473877,-0.1922757774591446,-0.17910374701023102,0.669678270816803
4fc4d850-388d-424f-96e9-53a92ea3ea2a,74f062f9-10a4-49e2-ab35-9246e443d047,1760515541335834928,-0.495911,0.572205,-0.452042,-0.016113,-0.518066,0.876465,0.5817263244270806,-30.46792978565375,88.054219197655,0.6946637630462646,-0.19232995808124542,-0.17909452319145203,0.6696092486381531
4fc4d850-388d-424f-96e9-53a92ea3ea2a,74f062f9-10a4-49e2-ab35-9246e443d047,1760515541343836928,-0.253677,0.696182,-0.757217,-0.013184,-0.510254,0.88623,0.5830871029415372,-30.467267119124482,88.03694553529945,0.6947678923606873,-0.19236089289188385,-0.179053395986557,0.6695033311843872
