section id,recording id,timestamp [ns],gyro x [deg/s],gyro y [deg/s],gyro z [deg/s],acceleration x [g],acceleration y [g],acceleration z [g],roll [deg],pitch [deg],yaw [deg],quaternion w,quaternion x,quaternion y,quaternion z
5140502d-ea98-49dc-84f9-345e9630b20e,c6182466-ca39-4b66-ab45-5a7df317499e,1760515885458635352,0.558853,-0.696182,0.238419,-0.024902,-0.552246,0.865723,1.2450390236965314,-32.205826590777406,128.02089092372776,0.42369815707206726,-0.1309184581041336,-0.24472588300704956,0.8622351288795471
5140502d-ea98-49dc-84f9-345e9630b20e,c6182466-ca39-4b66-ab45-5a7df317499e,1760515885469333352,0.253677,-0.696182,0.177383,-0.022461,-0.549805,0.864746,1.2456256542653006,-32.20371622492084,128.0004682876009,0.42385512590408325,-0.13095876574516296,-0.24468444287776947,0.8621636629104614
5140502d-ea98-49dc-84f9-345e9630b20e,c6182466-ca39-4b66-ab45-5a7df317499e,1760515885480031352,-0.175476,-0.572205,0.482559,-0.013184,-0.559082,0.869629,1.2453753089087405,-32.20261262915564,127.97018725491398,0.42408350110054016,-0.1310175210237503,-0.244642436504364,0.8620542883872986
5140502d-ea98-49dc-84f9-345e9630b20e,c6182466-ca39-4b66-ab45-5a7df317499e,1760515885486407352,0.131607,-1.184464,0.482559,-0.018066,-0.544922,0.86084,1.2458825146409158,-32.20319998100446,127.92706106020967,0.4244084060192108,-0.13111554086208344,-0.24459566175937653,0.8618927597999573
5140502d-ea98-49dc-84f9-345e9630b20e,c6182466-ca39-4b66-ab45-5a7df317499e,1760515885492785352,0.253677,-0.818253,0.482559,-0.007324,-0.550781,0.866699,1.241117769833132,-32.20258559363052,127.89858075913972,0.42461302876472473,-0.13113823533058167,-0.2445760816335678,0.861794114112854
5140502d-ea98-49dc-84f9-345e9630b20e,c6182466-ca39-4b66-ab45-5a7df317499e,1760515885499163352,-0.234604,-0.757217,0.299454,-0.013184,-0.540039,0.867676,1.2401097629015934,-32.20356236738616,127.87590513365602,0.4247804582118988,-0.13118264079093933,-0.24456124007701874,0.8617089986801147
5140502d-ea98-49dc-84f9-345e9630b20e,c6182466-ca39-4b66-ab45-5a7df317499e,1760515885505541352,0.37384,-0.938416,0.421524,-0.015137,-0.539551,0.87207,1.2374293025330718,-32.19989886831269,127.85446222072272,0.4249395728111267,-0.1311948299407959,-0.24451899528503418,0.8616406917572021
5140502d-ea98-49dc-84f9-345e9630b20e,c6182466-ca39-4b66-ab45-5a7df317499e,1760515885511919352,0.312805,-0.572205,0.421524,-0.025879,-0.534668,0.864258,1.236500226351102,-32.1962415097517,127.841099835345,0.42504164576530457,-0.13120295107364655,-0.24447955191135406,0.8616003394126892
5140502d-ea98-49dc-84f9-345e9630b20e,c6182466-ca39-4b66-ab45-5a7df317499e,1760515885522603352,-0.112534,-0.265121,0.482559,-0.015137,-0.539551,0.867676,1.2339686271169306,-32.1949810571071,127.80184999624764,0.42533257603645325,-0.13126303255558014,-0.24443449079990387,0.8614603877067566
5140502d-ea98-49dc-84f9-345e9630b20e,c6182466-ca39-4b66-ab45-5a7df317499e,1760515885533285352,-0.175476,0.160217,0.177383,-0.009277,-0.540527,0.873047,1.2322432011998168,-32.194859530851,127.76723386222577,0.4255892336368561,-0.1313234567642212,-0.24440032243728638,0.8613340854644775
5140502d-ea98-49dc-84f9-345e9630b20e,c6182466-ca39-4b66-ab45-5a7df317499e,1760515885543967352,0.253677,0.15831,0.116348,-0.013672,-0.552246,0.862793,1.2315854761722071,-32.192475219631284,127.72571716631859,0.42590221762657166,-0.1313983052968979,-0.24433720111846924,0.8611858487129211
5140502d-ea98-49dc-84f9-345e9630b20e,c6182466-ca39-4b66-ab45-5a7df317499e,1760515885554649352,-0.356674,0.097275,-0.188828,-0.010254,-0.547363,0.888184,1.2295239710500183,-32.19012858773856,127.65878030816184,0.42640310525894165,-0.13151688873767853,-0.24425038695335388,0.8609445095062256
5140502d-ea98-49dc-84f9-345e9630b20e,c6182466-ca39-4b66-ab45-5a7df317499e,1760515885565331352,-0.051498,0.097275,0.177383,-0.005371,-0.532715,0.876953,1.2246141032792544,-32.18338075574691,127.58680944739085,0.4269399642944336,-0.13160857558250427,-0.24413520097732544,0.8606970310211182
5140502d-ea98-49dc-84f9-345e9630b20e,c6182466-ca39-4b66-ab45-5a7df317499e,1760515885576013352,0.070572,-0.207901,-0.249863,-0.019531,-0.547852,0.865723,1.226154869827777,-32.182555982764924,127.51771356642602,0.42746296525001526,-0.13176429271697998,-0.24404384195804596,0.8604394793510437
5140502d-ea98-49dc-84f9-345e9630b20e,c6182466-ca39-4b66-ab45-5a7df317499e,1760515885585621352,-0.051498,-0.207901,-0.127792,-0.018066,-0.550293,0.856934,1.2251906918354183,-32.18376988584861,127.46221713695886,0.427876353263855,-0.13187968730926514,-0.24399273097515106,0.8602308630943298
5140502d-ea98-49dc-84f9-345e9630b20e,c6182466-ca39-4b66-ab45-5a7df317499e,1760515885595229352,-0.175476,-0.205994,-0.494003,-0.012695,-0.54834,0.876953,1.2223883769669242,-32.18211916310471,127.40963538860157,0.428266704082489,-0.13196450471878052,-0.24393023550510406,0.8600413203239441
5140502d-ea98-49dc-84f9-345e9630b20e,c6182466-ca39-4b66-ab45-5a7df317499e,1760515885604837352,0.133514,0.038147,-0.310898,-0.011719,-0.533203,0.86084,1.219090510836178,-32.179191158678975,127.28945620828837,0.4291643500328064,-0.132184699177742,-0.24378202855587006,0.8596019148826599
5140502d-ea98-49dc-84f9-345e9630b20e,c6182466-ca39-4b66-ab45-5a7df317499e,1760515885614445352,0.007629,-0.328064,-0.616074,-0.012207,-0.531738,0.868164,1.2160828681520834,-32.17385315909231,127.1473173015259,0.43022918701171875,-0.13244463503360748,-0.24358902871608734,0.8590841889381409
5140502d-ea98-49dc-84f9-345e9630b20e,c6182466-ca39-4b66-ab45-5a7df317499e,1760515885624053352,0.133514,0.038147,-0.616074,-0.021484,-0.546875,0.870605,1.2167499365306056,-32.172308091205736,126.98771532595008,0.4314282536506653,-0.13278302550315857,-0.24339020252227783,0.8584867715835571
5140502d-ea98-49dc-84f9-345e9630b20e,c6182466-ca39-4b66-ab45-5a7df317499e,1760515885633642352,-0.114441,0.038147,-0.555038,-0.027344,-0.525879,0.870117,1.2194831236988877,-32.17171871059095,126.85034637021043,0.43246346712112427,-0.1330929696559906,-0.2432161122560501,0.8579670786857605
5140502d-ea98-49dc-84f9-345e9630b20e,c6182466-ca39-4b66-ab45-5a7df317499e,1760515885643231352,-0.234604,-0.207901,-0.494003,-0.018066,-0.538574,0.858398,1.2167719636288683,-32.17141407538905,126.71437418146238,0.4334757626056671,-0.13336004316806793,-0.2430659830570221,0.857457160949707
5140502d-ea98-49dc-84f9-345e9630b20e,c6182466-ca39-4b66-ab45-5a7df317499e,1760515885652820352,-0.53978,-0.207901,-0.616074,-0.008301,-0.548828,0.864746,1.2145859048749326,-32.172377553556245,126.5808538417294,0.43446895480155945,-0.1336304247379303,-0.24292594194412231,0.8569519519805908
5140502d-ea98-49dc-84f9-345e9630b20e,c6182466-ca39-4b66-ab45-5a7df317499e,1760515885662409352,-0.354767,-0.022888,-0.310898,-0.025391,-0.556152,0.86084,1.2144386794933903,-32.172743179621534,126.46592144994706,0.43532755970954895,-0.13387428224086761,-0.24279509484767914,0.856515109539032
5140502d-ea98-49dc-84f9-345e9630b20e,c6182466-ca39-4b66-ab45-5a7df317499e,1760515885671998352,-0.295639,-0.085831,-0.371933,-0.00293,-0.557617,0.869141,1.2110238933429054,-32.17435945014516,126.35195317189176,0.4361703395843506,-0.13409626483917236,-0.2426869422197342,0.8560821413993835
5140502d-ea98-49dc-84f9-345e9630b20e,c6182466-ca39-4b66-ab45-5a7df317499e,1760515885681596352,-0.051498,-0.024796,-0.005722,-0.024414,-0.549316,0.864258,1.21365755111827,-32.17620798524796,126.21019964529758,0.43723270297050476,-0.13442300260066986,-0.2425246685743332,0.8555347919464111
5140502d-ea98-49dc-84f9-345e9630b20e,c6182466-ca39-4b66-ab45-5a7df317499e,1760515885691194352,-0.051498,-0.391006,-0.249863,-0.022949,-0.549805,0.868652,1.2162060794763387,-32.17580066833312,126.07160596360212,0.4382729232311249,-0.13473370671272278,-0.24234911799430847,0.8550032377243042
5140502d-ea98-49dc-84f9-345e9630b20e,c6182466-ca39-4b66-ab45-5a7df317499e,1760515885700792352,0.312805,-0.450134,-0.066757,-0.01416,-0.541016,0.869629,1.2123741298414203,-32.17193508535063,125.93970695044514,0.4392526149749756,-0.13496935367584229,-0.24217964708805084,0.8545112013816833
5140502d-ea98-49dc-84f9-345e9630b20e,c6182466-ca39-4b66-ab45-5a7df317499e,1760515885710390352,0.133514,-0.816345,-0.066757,-0.019043,-0.527344,0.871094,1.2107312210088441,-32.16871364388849,125.93883003953702,0.43925896286964417,-0.13494674861431122,-0.24216081202030182,0.854516863822937
5140502d-ea98-49dc-84f9-345e9630b20e,c6182466-ca39-4b66-ab45-5a7df317499e,1760515885719988352,0.133514,-0.938416,0.116348,-0.018066,-0.547363,0.865234,1.213191821391867,-32.1672405398635,125.94014015091032,0.43925589323043823,-0.1349567472934723,-0.24214190244674683,0.8545222282409668
5140502d-ea98-49dc-84f9-345e9630b20e,c6182466-ca39-4b66-ab45-5a7df317499e,1760515885729586352,0.070572,-0.696182,0.055313,-0.013672,-0.548828,0.861816,1.2153681122161366,-32.164110818083095,125.76315491997637,0.4405829608440399,-0.13533489406108856,-0.24190141260623932,0.853847086429596
5140502d-ea98-49dc-84f9-345e9630b20e,c6182466-ca39-4b66-ab45-5a7df317499e,1760515885739186352,-0.112534,-0.696182,-0.249863,-0.02832,-0.550781,0.878906,1.2150635996040307,-32.165962939328566,125.60276737100402,0.4417750835418701,-0.13567814230918884,-0.24172677099704742,0.853225827217102
5140502d-ea98-49dc-84f9-345e9630b20e,c6182466-ca39-4b66-ab45-5a7df317499e,1760515885748786352,-0.356674,-0.757217,-0.188828,-0.017578,-0.539062,0.881836,1.2149285776663503,-32.16261515397337,125.60269398509159,0.4417787790298462,-0.13566453754901886,-0.24170219898223877,0.8532330393791199
5140502d-ea98-49dc-84f9-345e9630b20e,c6182466-ca39-4b66-ab45-5a7df317499e,1760515885758386352,-0.354767,-0.816345,-0.371933,-0.014648,-0.542969,0.863769,1.2165398336293596,-32.16329091237555,125.60355320022579,0.4417750835418701,-0.1356772929430008,-0.24170204997062683,0.8532329797744751
5140502d-ea98-49dc-84f9-345e9630b20e,c6182466-ca39-4b66-ab45-5a7df317499e,1760515885767986352,-0.602722,-0.816345,-0.310898,-0.012207,-0.557129,0.878418,1.2143905678001552,-32.165242181946006,125.60240709170063,0.4417770802974701,-0.13567113876342773,-0.24172355234622955,0.8532268404960632
5140502d-ea98-49dc-84f9-345e9630b20e,c6182466-ca39-4b66-ab45-5a7df317499e,1760515885777590352,-0.417709,-0.879288,-0.066757,-0.023926,-0.5625,0.867187,1.215594902730791,-32.16936499813233,125.6030488899427,0.44177061319351196,-0.1356944590806961,-0.24175046384334564,0.8532188534736633
5140502d-ea98-49dc-84f9-345e9630b20e,c6182466-ca39-4b66-ab45-5a7df317499e,1760515885787198352,-0.663757,-0.63324,-0.188828,-0.027344,-0.537109,0.872559,1.220260757242888,-32.16658046898414,125.60553572463964,0.44176480174064636,-0.1357133537530899,-0.24171462655067444,0.8532289862632751
5140502d-ea98-49dc-84f9-345e9630b20e,c6182466-ca39-4b66-ab45-5a7df317499e,1760515885796806352,-0.478745,-0.574112,-0.188828,-0.005859,-0.547363,0.877441,1.215814436673094,-32.16580605649969,125.60316958756586,0.44177383184432983,-0.13568228483200073,-0.2417231798171997,0.8532268404960632
5140502d-ea98-49dc-84f9-345e9630b20e,c6182466-ca39-4b66-ab45-5a7df317499e,1760515885806414352,-0.234604,-0.513077,0.360489,-0.016113,-0.542969,0.882324,1.2147688969432577,-32.161799392670225,125.39609679980823,0.44331684708595276,-0.13609576225280762,-0.24145174026489258,0.8524371981620789
5140502d-ea98-49dc-84f9-345e9630b20e,c6182466-ca39-4b66-ab45-5a7df317499e,1760515885816022352,0.312805,-0.083923,0.238419,-0.012695,-0.554688,0.879883,1.2099199187968612,-32.164400419322035,125.18866899787898,0.4448462724685669,-0.1365065574645996,-0.24124321341514587,0.8516333699226379
5140502d-ea98-49dc-84f9-345e9630b20e,c6182466-ca39-4b66-ab45-5a7df317499e,1760515885825628352,0.192642,-0.085831,0.055313,-0.01709,-0.538086,0.875977,1.2071981233322677,-32.16105827566009,124.77667296880485,0.4479030668735504,-0.13733991980552673,-0.24073663353919983,0.8500390648841858
5140502d-ea98-49dc-84f9-345e9630b20e,c6182466-ca39-4b66-ab45-5a7df317499e,1760515885835234352,0.495911,-0.328064,0.238419,-0.018555,-0.53125,0.870605,1.2091179581719436,-32.15956421084722,124.64854504334359,0.4488588273525238,-0.13761745393276215,-0.2405642867088318,0.8495386838912964
5140502d-ea98-49dc-84f9-345e9630b20e,c6182466-ca39-4b66-ab45-5a7df317499e,1760515885844840352,0.619888,-0.513077,0.238419,-0.008301,-0.539551,0.87793,1.2046747623888288,-32.157271647506,124.64617854602827,0.4488694369792938,-0.13758060336112976,-0.24056179821491241,0.8495397567749023
5140502d-ea98-49dc-84f9-345e9630b20e,c6182466-ca39-4b66-ab45-5a7df317499e,1760515885854446352,0.680923,-0.757217,0.299454,-0.017578,-0.558105,0.875977,1.2052402106184412,-32.157606625721435,124.64648075649609,0.4488680362701416,-0.13758546113967896,-0.24056243896484375,0.8495395183563232
5140502d-ea98-49dc-84f9-345e9630b20e,c6182466-ca39-4b66-ab45-5a7df317499e,1760515885864052352,1.10817,-0.265121,0.116348,-0.005371,-0.54541,0.87207,1.1996323972130762,-32.15521850431296,124.64349711857079,0.4488808810710907,-0.13754090666770935,-0.2405630648136139,0.8495397567749023
5140502d-ea98-49dc-84f9-345e9630b20e,c6182466-ca39-4b66-ab45-5a7df317499e,1760515885873644352,0.862122,-0.816345,0.238419,-0.004395,-0.547852,0.870117,1.1963430635237216,-32.157044786253714,124.44177988057741,0.4503668248653412,-0.13794688880443573,-0.24034707248210907,0.8487482666969299
5140502d-ea98-49dc-84f9-345e9630b20e,c6182466-ca39-4b66-ab45-5a7df317499e,1760515885883236352,0.984192,-0.63324,0.055313,-0.009766,-0.543457,0.879394,1.1918487979408443,-32.153621131119976,124.24863315701917,0.4517909586429596,-0.138305202126503,-0.2401065230369568,0.8480008244514465
5140502d-ea98-49dc-84f9-345e9630b20e,c6182466-ca39-4b66-ab45-5a7df317499e,1760515885892828352,0.801086,-0.511169,-0.188828,-0.019043,-0.544922,0.859863,1.1886259260912242,-32.15130697037372,124.02663722768528,0.45342862606048584,-0.13873721659183502,-0.23983372747898102,0.8471329212188721
5140502d-ea98-49dc-84f9-345e9630b20e,c6182466-ca39-4b66-ab45-5a7df317499e,1760515885902420352,0.558853,-0.024796,-0.188828,-0.016113,-0.545898,0.866211,1.184773700181941,-32.149469169970146,123.81357026148814,0.45499685406684875,-0.13914723694324493,-0.2395770251750946,0.8462970852851868
5140502d-ea98-49dc-84f9-345e9630b20e,c6182466-ca39-4b66-ab45-5a7df317499e,1760515885912012352,0.619888,-0.757217,-0.066757,-0.02002,-0.544434,0.863281,1.182950765967267,-32.14809626209181,123.62006957623325,0.45642292499542236,-0.13953272998332977,-0.23933881521224976,0.8455327749252319
5140502d-ea98-49dc-84f9-345e9630b20e,c6182466-ca39-4b66-ab45-5a7df317499e,1760515885920008352,0.37384,-0.450134,-0.127792,-0.019043,-0.540527,0.864746,1.1820107511580862,-32.14675606437445,123.38944432902906,0.45812317728996277,-0.14000190794467926,-0.23905135691165924,0.8446165323257446
5140502d-ea98-49dc-84f9-345e9630b20e,c6182466-ca39-4b66-ab45-5a7df317499e,1760515885928004352,0.312805,-0.267029,-0.127792,-0.014648,-0.544922,0.864258,1.1792607927848928,-32.14689329135955,123.17632369498205,0.45968735218048096,-0.14042656123638153,-0.23880261182785034,0.8437660932540894
5140502d-ea98-49dc-84f9-345e9630b20e,c6182466-ca39-4b66-ab45-5a7df317499e,1760515885936000352,-0.295639,-0.085831,0.177383,-0.020996,-0.544922,0.861328,1.1798879010223653,-32.14760991155907,122.99809239582733,0.4609996974468231,-0.14080528914928436,-0.2385866791009903,0.8430477380752563
5140502d-ea98-49dc-84f9-345e9630b20e,c6182466-ca39-4b66-ab45-5a7df317499e,1760515885943996352,0.190735,-0.267029,0.116348,-0.018066,-0.549316,0.860352,1.1770273991856255,-32.1487040393868,122.75850551087018,0.46275418996810913,-0.141287162899971,-0.23831138014793396,0.842083215713501
5140502d-ea98-49dc-84f9-345e9630b20e,c6182466-ca39-4b66-ab45-5a7df317499e,1760515885954658352,-0.175476,-0.083923,-0.005722,0.0,-0.553223,0.873047,1.1711965683654852,-32.151940403070384,122.51301139276579,0.4645415246486664,-0.14176756143569946,-0.23805561661720276,0.8410901427268982
5140502d-ea98-49dc-84f9-345e9630b20e,c6182466-ca39-4b66-ab45-5a7df317499e,1760515885965320352,-0.234604,0.040054,0.238419,0.004395,-0.550781,0.868164,1.163988058277598,-32.15347089339406,122.2762648871073,0.4662615954875946,-0.1422123908996582,-0.23780280351638794,0.8401342630386353
5140502d-ea98-49dc-84f9-345e9630b20e,c6182466-ca39-4b66-ab45-5a7df317499e,1760515885975982352,0.007629,-0.144958,0.055313,-0.003418,-0.536621,0.868652,1.1574123801031373,-32.14727549484359,122.04203029379143,0.4679710865020752,-0.14262498915195465,-0.23749294877052307,0.8392009735107422
5140502d-ea98-49dc-84f9-345e9630b20e,c6182466-ca39-4b66-ab45-5a7df317499e,1760515885986639352,-0.114441,0.038147,-0.066757,-0.015137,-0.539062,0.870117,1.1519228541489297,-32.145717023499955,121.57096255586008,0.47140732407569885,-0.14355362951755524,-0.23691579699516296,0.8372803330421448
5140502d-ea98-49dc-84f9-345e9630b20e,c6182466-ca39-4b66-ab45-5a7df317499e,1760515885997294352,-0.234604,-0.207901,0.055313,-0.015137,-0.548828,0.873047,1.1492619612758401,-32.146181312164074,121.36181840591169,0.4729286730289459,-0.14396826922893524,-0.23666778206825256,0.8364208936691284
5140502d-ea98-49dc-84f9-345e9630b20e,c6182466-ca39-4b66-ab45-5a7df317499e,1760515886007949352,-0.175476,0.038147,-0.066757,-0.007324,-0.546387,0.854492,1.1442912937042962,-32.14860919626228,121.19696129791555,0.47411853075027466,-0.1442822813987732,-0.23649874329566956,0.8357407450675964
5140502d-ea98-49dc-84f9-345e9630b20e,c6182466-ca39-4b66-ab45-5a7df317499e,1760515886015962352,-0.175476,0.221252,-0.005722,-0.01709,-0.54248,0.880371,1.1427268013636487,-32.14641053773639,120.98676451747399,0.47564998269081116,-0.1446954309940338,-0.23622411489486694,0.834876298904419
5140502d-ea98-49dc-84f9-345e9630b20e,c6182466-ca39-4b66-ab45-5a7df317499e,1760515886023974352,-0.236511,0.343323,-0.494003,-0.016602,-0.539062,0.875,1.1425043856565031,-32.14406797446107,120.7826891967634,0.4771382212638855,-0.14510461688041687,-0.23594987392425537,0.834033191204071
5140502d-ea98-49dc-84f9-345e9630b20e,c6182466-ca39-4b66-ab45-5a7df317499e,1760515886031986352,-0.114441,-0.022888,-0.249863,-0.009277,-0.549805,0.864746,1.1392710432381756,-32.14461003349015,120.65296937304247,0.4780747890472412,-0.14535033702850342,-0.23580290377140045,0.8334954977035522
5140502d-ea98-49dc-84f9-345e9630b20e,c6182466-ca39-4b66-ab45-5a7df317499e,1760515886039998352,0.436783,-0.207901,-0.066757,-0.01709,-0.534668,0.87207,1.1411158292316854,-32.14163288493508,120.50575454516034,0.4791523218154907,-0.14565423130989075,-0.23558655381202698,0.832884669303894
5140502d-ea98-49dc-84f9-345e9630b20e,c6182466-ca39-4b66-ab45-5a7df317499e,1760515886050672352,0.070572,-0.448227,-0.188828,-0.021484,-0.529297,0.889648,1.14413169457036,-32.136982511077214,120.31610347841077,0.48054155707359314,-0.14604653418064117,-0.23529864847660065,0.8320965766906738
5140502d-ea98-49dc-84f9-345e9630b20e,c6182466-ca39-4b66-ab45-5a7df317499e,1760515886061346352,0.25177,-0.144958,-0.188828,-0.033203,-0.52832,0.865723,1.147215342475427,-32.132063617962004,120.11349443138263,0.4820239245891571,-0.14646421372890472,-0.23499128222465515,0.8312522172927856
5140502d-ea98-49dc-84f9-345e9630b20e,c6182466-ca39-4b66-ab45-5a7df317499e,1760515886072020352,0.070572,-0.024796,-0.005722,-0.012695,-0.541504,0.873047,1.148922469704425,-32.132921734890424,119.91602065822931,0.4834582209587097,-0.14688491821289062,-0.2347375750541687,0.8304162621498108
5140502d-ea98-49dc-84f9-345e9630b20e,c6182466-ca39-4b66-ab45-5a7df317499e,1760515886082695352,0.131607,-0.207901,0.543594,-0.019043,-0.54248,0.879883,1.1499072712846108,-32.12581192286691,119.50113293688536,0.4864717721939087,-0.14771106839179993,-0.23414845764636993,0.82867431640625
5140502d-ea98-49dc-84f9-345e9630b20e,c6182466-ca39-4b66-ab45-5a7df317499e,1760515886093369352,-0.051498,-0.024796,0.360489,-0.013672,-0.532715,0.865234,1.14910365509481,-32.122486596319995,119.27972553229218,0.4880741536617279,-0.14814336597919464,-0.2338419407606125,0.8277409672737122
5140502d-ea98-49dc-84f9-345e9630b20e,c6182466-ca39-4b66-ab45-5a7df317499e,1760515886104043352,-0.234604,-0.085831,0.299454,-0.020508,-0.529785,0.865723,1.150348295124347,-32.1183876262657,119.1641738471121,0.4889158308506012,-0.14837075769901276,-0.23365743458271027,0.8272554874420166
5140502d-ea98-49dc-84f9-345e9630b20e,c6182466-ca39-4b66-ab45-5a7df317499e,1760515886114693352,-1.026154,-0.328064,0.60463,-0.013672,-0.538574,0.869629,1.1507964528659829,-32.115653629411476,119.01949492926481,0.48996397852897644,-0.14865732192993164,-0.23344822227954865,0.8266426920890808
5140502d-ea98-49dc-84f9-345e9630b20e,c6182466-ca39-4b66-ab45-5a7df317499e,1760515886125346352,-1.152039,-0.816345,0.665665,-0.019531,-0.532227,0.865723,1.1528170474427006,-32.11591523098458,118.81912453621965,0.4914124608039856,-0.14908094704151154,-0.2331811487674713,0.8257815837860107
5140502d-ea98-49dc-84f9-345e9630b20e,c6182466-ca39-4b66-ab45-5a7df317499e,1760515886135999352,-1.211166,-0.631332,0.482559,-0.020996,-0.550781,0.872559,1.1510936069597,-32.126455931522415,118.68168642289794,0.4923868179321289,-0.1493929624557495,-0.2330857515335083,0.8251714706420898
5140502d-ea98-49dc-84f9-345e9630b20e,c6182466-ca39-4b66-ab45-5a7df317499e,1760515886143985352,-1.64032,-0.694275,0.665665,-0.007324,-0.538086,0.878906,1.1455300092151306,-32.14170696018712,118.33119983223091,0.49487927556037903,-0.15013040602207184,-0.23276175558567047,0.8236366510391235
5140502d-ea98-49dc-84f9-345e9630b20e,c6182466-ca39-4b66-ab45-5a7df317499e,1760515886151971352,-1.579285,-0.938416,0.665665,-0.012695,-0.530762,0.872559,1.1389768447027016,-32.149295206404695,118.11697805337735,0.4963959753513336,-0.15055079758167267,-0.23256374895572662,0.8227025866508484
5140502d-ea98-49dc-84f9-345e9630b20e,c6182466-ca39-4b66-ab45-5a7df317499e,1760515886159957352,-1.516342,-0.574112,0.482559,-0.021484,-0.543457,0.875977,1.1378759669546146,-32.16101385657708,117.89417136911703,0.49797865748405457,-0.15104524791240692,-0.23235969245433807,0.8217125535011292
5140502d-ea98-49dc-84f9-345e9630b20e,c6182466-ca39-4b66-ab45-5a7df317499e,1760515886167943352,-1.577377,-0.879288,0.60463,-0.023437,-0.543945,0.875488,1.133463726886044,-32.170275141086655,117.72103585043808,0.4991997480392456,-0.1514045000076294,-0.23221701383590698,0.8209455013275146
5140502d-ea98-49dc-84f9-345e9630b20e,c6182466-ca39-4b66-ab45-5a7df317499e,1760515886178645352,-1.579285,-0.938416,0.238419,-0.018066,-0.547363,0.878418,1.128232607858242,-32.18228115864304,117.54717092171869,0.5004199743270874,-0.1517711728811264,-0.2320961058139801,0.820168673992157
5140502d-ea98-49dc-84f9-345e9630b20e,c6182466-ca39-4b66-ab45-5a7df317499e,1760515886189347352,-1.945496,-0.999451,0.360489,-0.009766,-0.543945,0.859863,1.119035424679211,-32.19826443679954,117.36517269689571,0.5016843676567078,-0.15214316546916962,-0.23200970888137817,0.8193513751029968
5140502d-ea98-49dc-84f9-345e9630b20e,c6182466-ca39-4b66-ab45-5a7df317499e,1760515886200049352,-1.699448,-1.184464,0.238419,-0.012695,-0.53418,0.876465,1.1094359809371852,-32.20857987038358,117.3666329663354,0.5016422271728516,-0.1521163135766983,-0.23212768137454987,0.8193487524986267
5140502d-ea98-49dc-84f9-345e9630b20e,c6182466-ca39-4b66-ab45-5a7df317499e,1760515886210702352,-1.331329,-0.511169,-0.310898,-0.016113,-0.547363,0.870117,1.102454307595115,-32.2260710592399,117.26640687076682,0.5023236870765686,-0.15234535932540894,-0.23215056955814362,0.8188821077346802
5140502d-ea98-49dc-84f9-345e9630b20e,c6182466-ca39-4b66-ab45-5a7df317499e,1760515886221357352,-1.150131,-0.757217,0.055313,-0.015137,-0.553711,0.873535,1.0974633541267034,-32.23130520721277,117.03515236750734,0.5039588809013367,-0.1528007537126541,-0.2319020926952362,0.8178622722625732
5140502d-ea98-49dc-84f9-345e9630b20e,c6182466-ca39-4b66-ab45-5a7df317499e,1760515886232012352,-1.396179,-0.63324,-0.005722,-0.018066,-0.552246,0.874512,1.092228209023145,-32.244792077347284,116.82145846182006,0.5054563879966736,-0.15325456857681274,-0.23173630237579346,0.8168997168540955
5140502d-ea98-49dc-84f9-345e9630b20e,c6182466-ca39-4b66-ab45-5a7df317499e,1760515886242663352,-0.967026,-0.574112,0.177383,-0.015137,-0.557129,0.880371,1.0846229200786475,-32.25166643368031,116.44474310331525,0.5081155300140381,-0.1539916843175888,-0.2313140332698822,0.8152293562889099
5140502d-ea98-49dc-84f9-345e9630b20e,c6182466-ca39-4b66-ab45-5a7df317499e,1760515886253313352,-0.478745,-1.062393,0.238419,-0.013672,-0.554688,0.872559,1.0831081457618967,-32.25001150311217,116.27990555724904,0.509286642074585,-0.15430620312690735,-0.23108720779418945,0.8145031332969666
5140502d-ea98-49dc-84f9-345e9630b20e,c6182466-ca39-4b66-ab45-5a7df317499e,1760515886263963352,-0.295639,-1.062393,0.055313,-0.023438,-0.556152,0.874512,1.0870030162567028,-32.25010309231538,116.12193184097856,0.5104167461395264,-0.1546526849269867,-0.23085756599903107,0.8137948513031006
5140502d-ea98-49dc-84f9-345e9630b20e,c6182466-ca39-4b66-ab45-5a7df317499e,1760515886274643352,0.133514,-0.938416,0.7267,-0.015625,-0.539551,0.875488,1.0878833584163132,-32.245637436047126,115.98001029421785,0.5114314556121826,-0.15492498874664307,-0.23063012957572937,0.8131701946258545
5140502d-ea98-49dc-84f9-345e9630b20e,c6182466-ca39-4b66-ab45-5a7df317499e,1760515886285322352,-0.051498,-1.062393,0.60463,-0.010742,-0.557617,0.873047,1.0856439769549757,-32.24715123558108,115.82042920550847,0.5125570297241211,-0.1552368402481079,-0.23043493926525116,0.8124570846557617
5140502d-ea98-49dc-84f9-345e9630b20e,c6182466-ca39-4b66-ab45-5a7df317499e,1760515886296001352,0.253677,-1.001358,0.60463,-0.006836,-0.552246,0.868164,1.083924763811518,-32.248042459911304,115.63501364491393,0.5138664245605469,-0.15560129284858704,-0.2301975041627884,0.8116270899772644
5140502d-ea98-49dc-84f9-345e9630b20e,c6182466-ca39-4b66-ab45-5a7df317499e,1760515886303990352,0.495911,-0.511169,1.031876,-0.020996,-0.540527,0.849121,1.0732983531258136,-32.24469755234556,115.34292575346902,0.5159163475036621,-0.15609747171401978,-0.2298242449760437,0.8103361129760742
5140502d-ea98-49dc-84f9-345e9630b20e,c6182466-ca39-4b66-ab45-5a7df317499e,1760515886311981352,0.253677,-0.329971,1.153946,-0.01709,-0.540039,0.872559,1.0755799304706615,-32.24531799110915,115.14450871824171,0.5173224806785583,-0.15651406347751617,-0.22954770922660828,0.8094372153282166
5140502d-ea98-49dc-84f9-345e9630b20e,c6182466-ca39-4b66-ab45-5a7df317499e,1760515886319972352,0.312805,-0.267029,1.337051,-0.012207,-0.542969,0.868164,1.0795630664525675,-32.24039348578071,114.96692179235156,0.5185903310775757,-0.1568756252527237,-0.22925198078155518,0.8086393475532532
5140502d-ea98-49dc-84f9-345e9630b20e,c6182466-ca39-4b66-ab45-5a7df317499e,1760515886327963352,0.312805,-0.450134,1.642227,-0.006836,-0.538086,0.860352,1.0888463854489436,-32.237699127879495,114.82051106391975,0.5196449756622314,-0.1572217494249344,-0.22899019718170166,0.8079689741134644
5140502d-ea98-49dc-84f9-345e9630b20e,c6182466-ca39-4b66-ab45-5a7df317499e,1760515886338645352,-0.175476,-0.87738,2.069473,-0.036133,-0.540039,0.858398,1.099267054659353,-32.2380934797977,114.68669956971836,0.5206084251403809,-0.15756423771381378,-0.22876189649105072,0.8073464632034302
5140502d-ea98-49dc-84f9-345e9630b20e,c6182466-ca39-4b66-ab45-5a7df317499e,1760515886349327352,-0.112534,-0.574112,2.252579,-0.026367,-0.540039,0.867676,1.1077256310955783,-32.23615675225443,114.54605012686498,0.5216182470321655,-0.15789571404457092,-0.22851614654064178,0.8066992163658142
5140502d-ea98-49dc-84f9-345e9630b20e,c6182466-ca39-4b66-ab45-5a7df317499e,1760515886360009352,-0.297546,-1.304626,2.252579,-0.020996,-0.553223,0.868652,1.1173384517444702,-32.23908075896646,114.39548953402385,0.5226932168006897,-0.15827664732933044,-0.2282852828502655,0.8059938549995422
5140502d-ea98-49dc-84f9-345e9630b20e,c6182466-ca39-4b66-ab45-5a7df317499e,1760515886368015352,-0.537872,-1.121521,3.229141,-0.019043,-0.550781,0.866699,1.127151581579205,-32.243857497588714,114.32592013711239,0.5231960415840149,-0.15850582718849182,-0.22817805409431458,0.8056528568267822
5140502d-ea98-49dc-84f9-345e9630b20e,c6182466-ca39-4b66-ab45-5a7df317499e,1760515886376021352,-0.53978,-0.574112,3.473282,-0.019043,-0.549316,0.862793,1.1381506860005217,-32.246354324735925,114.2541673372079,0.5237191915512085,-0.15873728692531586,-0.22804610431194305,0.8053046464920044
5140502d-ea98-49dc-84f9-345e9630b20e,c6182466-ca39-4b66-ab45-5a7df317499e,1760515886384027352,-0.417709,-0.574112,3.839493,-0.010254,-0.552734,0.856934,1.1510608294709177,-32.25347261964433,114.11081152833015,0.5247430205345154,-0.15914541482925415,-0.227838397026062,0.8046160936355591
5140502d-ea98-49dc-84f9-345e9630b20e,c6182466-ca39-4b66-ab45-5a7df317499e,1760515886392033352,-0.417709,-0.513077,4.144669,-0.031738,-0.534668,0.873047,1.1718514437453522,-32.25401056902548,113.99734344469715,0.525580108165741,-0.1595192551612854,-0.22758913040161133,0.8040661215782166
5140502d-ea98-49dc-84f9-345e9630b20e,c6182466-ca39-4b66-ab45-5a7df317499e,1760515886402894352,-0.907898,-0.63324,4.205704,-0.027344,-0.554199,0.865723,1.1909932522883315,-32.2616510771894,113.93117113225267,0.5260728001594543,-0.15981967747211456,-0.22746290266513824,0.8037198781967163
5140502d-ea98-49dc-84f9-345e9630b20e,c6182466-ca39-4b66-ab45-5a7df317499e,1760515886413755352,-0.785828,-0.267029,4.327774,-0.008301,-0.547363,0.871582,1.2073829739043995,-32.26587768596612,113.8100604820695,0.5269491672515869,-0.16019411385059357,-0.22724823653697968,0.8031317591667175
5140502d-ea98-49dc-84f9-345e9630b20e,c6182466-ca39-4b66-ab45-5a7df317499e,1760515886424616352,-0.600815,-0.265121,4.083633,-0.020508,-0.546875,0.871582,1.231265156409144,-32.2735463686194,113.66763646956707,0.5279846787452698,-0.1606786847114563,-0.22699284553527832,0.8024267554283142
5140502d-ea98-49dc-84f9-345e9630b20e,c6182466-ca39-4b66-ab45-5a7df317499e,1760515886435081352,-1.026154,-0.63324,3.717422,-0.014648,-0.550293,0.874023,1.2613614157487987,-32.28673771164111,113.36582467335617,0.5301392078399658,-0.16154679656028748,-0.22652222216129303,0.8009635806083679
5140502d-ea98-49dc-84f9-345e9630b20e,c6182466-ca39-4b66-ab45-5a7df317499e,1760515886445545352,-0.968933,-0.511169,3.107071,-0.012207,-0.556641,0.876465,1.2682632411288697,-32.29106930704021,113.23349829368037,0.5310719609260559,-0.1618763506412506,-0.22633391618728638,0.8003321290016174
5140502d-ea98-49dc-84f9-345e9630b20e,c6182466-ca39-4b66-ab45-5a7df317499e,1760515886456009352,-0.78392,-0.757217,2.435684,-0.016113,-0.555176,0.87793,1.2756163292410985,-32.29214555523244,113.08008390530281,0.5321561098098755,-0.16223546862602234,-0.22609038650989532,0.7996078133583069
5140502d-ea98-49dc-84f9-345e9630b20e,c6182466-ca39-4b66-ab45-5a7df317499e,1760515886466656352,0.133514,-1.609802,1.398087,-0.012207,-0.553223,0.870117,1.274124619749335,-32.290760052449194,112.964088675375,0.5329640507698059,-0.1624474674463272,-0.22592328488826752,0.7990736961364746
5140502d-ea98-49dc-84f9-345e9630b20e,c6182466-ca39-4b66-ab45-5a7df317499e,1760515886477304352,1.047134,-2.038956,1.214981,-0.02832,-0.548828,0.89209,1.2659475687388553,-32.28128808575528,112.91021610304887,0.5333355069160461,-0.16245299577713013,-0.22581863403320312,0.7988542914390564
5140502d-ea98-49dc-84f9-345e9630b20e,c6182466-ca39-4b66-ab45-5a7df317499e,1760515886487952352,1.718521,-2.584457,0.97084,-0.028809,-0.549805,0.871582,1.2537622681176508,-32.268874612850674,112.74741001968769,0.5344616770744324,-0.16263145208358765,-0.2255576103925705,0.7981387376785278
5140502d-ea98-49dc-84f9-345e9630b20e,c6182466-ca39-4b66-ab45-5a7df317499e,1760515886495978352,1.960754,-3.074646,0.97084,-0.029785,-0.545898,0.87207,1.2270515932860078,-32.230302744765254,112.4815344602172,0.5363086462020874,-0.1627897471189499,-0.22503529489040375,0.7970141768455505
5140502d-ea98-49dc-84f9-345e9630b20e,c6182466-ca39-4b66-ab45-5a7df317499e,1760515886504007352,2.449036,-3.379822,1.276016,-0.021484,-0.544922,0.869141,1.2057409721330745,-32.20662905926304,112.34400798293814,0.5372531414031982,-0.1628016084432602,-0.22477446496486664,0.7964490652084351
5140502d-ea98-49dc-84f9-345e9630b20e,c6182466-ca39-4b66-ab45-5a7df317499e,1760515886512036352,2.084732,-4.049301,1.825333,-0.037598,-0.532227,0.864746,1.188787611004075,-32.18413556677348,112.20479642594486,0.5382158160209656,-0.16285212337970734,-0.22449930012226105,0.7958661317825317
5140502d-ea98-49dc-84f9-345e9630b20e,c6182466-ca39-4b66-ab45-5a7df317499e,1760515886520065352,1.718521,-4.480362,2.496719,-0.024902,-0.535156,0.861328,1.1667592481864844,-32.165272229621166,112.05975361639454,0.5392037630081177,-0.1628952920436859,-0.2242652177810669,0.7952543497085571
5140502d-ea98-49dc-84f9-345e9630b20e,c6182466-ca39-4b66-ab45-5a7df317499e,1760515886530710352,1.598358,-4.722595,3.168106,-0.025879,-0.547363,0.861328,1.1488965914533384,-32.15368631792175,111.93606742069055,0.5400417447090149,-0.1629592478275299,-0.2240927815437317,0.7947210669517517
5140502d-ea98-49dc-84f9-345e9630b20e,c6182466-ca39-4b66-ab45-5a7df317499e,1760515886541355352,1.167297,-4.966736,3.778458,-0.028809,-0.547363,0.862305,1.1297065171900957,-32.14463910558913,111.83732809340665,0.5407004356384277,-0.1629769206047058,-0.2239798754453659,0.7943013310432434
5140502d-ea98-49dc-84f9-345e9630b20e,c6182466-ca39-4b66-ab45-5a7df317499e,1760515886552000352,0.679016,-5.210876,4.022598,-0.015137,-0.532227,0.86084,1.1068456243187932,-32.13771127430136,111.70786134973535,0.5415617823600769,-0.16303907334804535,-0.22385548055171967,0.7937365770339966
5140502d-ea98-49dc-84f9-345e9630b20e,c6182466-ca39-4b66-ab45-5a7df317499e,1760515886562666352,0.192642,-4.358292,4.693985,-0.021484,-0.536621,0.867676,1.0929554183557546,-32.13298202951632,111.62073195030908,0.5421441197395325,-0.16309086978435516,-0.2237643003463745,0.7933540344238281
5140502d-ea98-49dc-84f9-345e9630b20e,c6182466-ca39-4b66-ab45-5a7df317499e,1760515886573332352,0.253677,-4.175186,4.816055,-0.010742,-0.533691,0.876953,1.0750119804881728,-32.12514297377383,111.58778376332394,0.5423473119735718,-0.16299420595169067,-0.2237478643655777,0.7932395935058594
5140502d-ea98-49dc-84f9-345e9630b20e,c6182466-ca39-4b66-ab45-5a7df317499e,1760515886583998352,0.558853,-3.992081,4.693985,0.01416,-0.536621,0.875488,1.0519094557736444,-32.116805813284664,111.47021393362309,0.5431265830993652,-0.1630246341228485,-0.22363212704658508,0.7927327156066895
5140502d-ea98-49dc-84f9-345e9630b20e,c6182466-ca39-4b66-ab45-5a7df317499e,1760515886592011352,0.436783,-3.87001,4.327774,0.013672,-0.530762,0.869141,1.007333227248872,-32.097777168599485,111.17988337638019,0.5450712442398071,-0.16319303214550018,-0.22329853475093842,0.7914562821388245
5140502d-ea98-49dc-84f9-345e9630b20e,c6182466-ca39-4b66-ab45-5a7df317499e,1760515886600022352,0.37384,-3.929138,4.144669,-0.002441,-0.540039,0.860352,0.9841549300874964,-32.090892458740996,111.0231738646682,0.5461169481277466,-0.16330572962760925,-0.22313794493675232,0.7907571792602539
5140502d-ea98-49dc-84f9-345e9630b20e,c6182466-ca39-4b66-ab45-5a7df317499e,1760515886608033352,0.190735,-4.051208,3.534317,0.011719,-0.549805,0.870605,0.9555458181038127,-32.09214496701768,110.84799526016539,0.5472678542137146,-0.16345538198947906,-0.2230333387851715,0.7899596691131592
5140502d-ea98-49dc-84f9-345e9630b20e,c6182466-ca39-4b66-ab45-5a7df317499e,1760515886616044352,0.192642,-3.87001,3.168106,0.005371,-0.553223,0.864258,0.9247650387981947,-32.09123880623045,110.68329251753208,0.5483440160751343,-0.1635594666004181,-0.22293920814990997,0.7892181277275085
5140502d-ea98-49dc-84f9-345e9630b20e,c6182466-ca39-4b66-ab45-5a7df317499e,1760515886626696352,-0.234604,-3.744125,2.557755,0.020996,-0.538086,0.859863,0.891651785163835,-32.09219308684054,110.54219844668278,0.5492497086524963,-0.1636105328798294,-0.22290296852588654,0.7885876893997192
5140502d-ea98-49dc-84f9-345e9630b20e,c6182466-ca39-4b66-ab45-5a7df317499e,1760515886637348352,-0.602722,-3.623962,1.642227,0.022949,-0.54541,0.855469,0.8548589025074825,-32.09809358873646,110.43068488526973,0.5499374866485596,-0.16360247135162354,-0.2229609340429306,0.7880935072898865
5140502d-ea98-49dc-84f9-345e9630b20e,c6182466-ca39-4b66-ab45-5a7df317499e,1760515886648000352,-0.968933,-2.76947,1.153946,0.005859,-0.54248,0.861816,0.8256889214018404,-32.109362830193646,110.27467060595396,0.5509382486343384,-0.16375930607318878,-0.22295589745044708,0.7873630523681641
5140502d-ea98-49dc-84f9-345e9630b20e,c6182466-ca39-4b66-ab45-5a7df317499e,1760515886658673352,-1.331329,-1.914978,-0.188828,0.003418,-0.549805,0.866211,0.801910482972122,-32.12171686408076,110.11865735843426,0.5519469976425171,-0.16395863890647888,-0.22293232381343842,0.7866213917732239
5140502d-ea98-49dc-84f9-345e9630b20e,c6182466-ca39-4b66-ab45-5a7df317499e,1760515886669344352,-1.394272,-1.367569,-0.188828,0.018066,-0.55127,0.878418,0.7712418383145423,-32.13068500088403,110.03464498536717,0.5524519085884094,-0.16395461559295654,-0.22302162647247314,0.7862423658370972
5140502d-ea98-49dc-84f9-345e9630b20e,c6182466-ca39-4b66-ab45-5a7df317499e,1760515886680015352,-1.152039,-0.999451,-0.616074,0.010254,-0.543945,0.877441,0.747794472768588,-32.140821067416276,109.91720859176719,0.5531981587409973,-0.1640709787607193,-0.22303636372089386,0.7856890559196472
5140502d-ea98-49dc-84f9-345e9630b20e,c6182466-ca39-4b66-ab45-5a7df317499e,1760515886690672352,-1.457214,-0.267029,-1.104355,0.003418,-0.537109,0.864746,0.712338173225931,-32.16039819447319,109.56892070177011,0.5554882884025574,-0.1645999550819397,-0.22284284234046936,0.7840157151222229
5140502d-ea98-49dc-84f9-345e9630b20e,c6182466-ca39-4b66-ab45-5a7df317499e,1760515886701332352,-1.577377,-0.265121,-0.738144,0.003418,-0.547363,0.879883,0.6975006001789943,-32.17199485755149,109.41694761344814,0.5564830303192139,-0.16484996676445007,-0.2227758765220642,0.7832764387130737
5140502d-ea98-49dc-84f9-345e9630b20e,c6182466-ca39-4b66-ab45-5a7df317499e,1760515886711992352,-1.579285,-0.022888,-1.04332,-0.005371,-0.540527,0.879394,0.6939884554577349,-32.174407605318684,109.28100198093018,0.5574017763137817,-0.1651018261909485,-0.22261375188827515,0.7826159596443176
5140502d-ea98-49dc-84f9-345e9630b20e,c6182466-ca39-4b66-ab45-5a7df317499e,1760515886719980352,-1.091003,0.465393,-0.738144,-0.011719,-0.553223,0.878418,0.6921738825817711,-32.17053762625975,109.10615267761872,0.5585970282554626,-0.16541016101837158,-0.22234395146369934,0.7817748785018921
5140502d-ea98-49dc-84f9-345e9630b20e,c6182466-ca39-4b66-ab45-5a7df317499e,1760515886727969352,-1.028061,0.585556,-0.555038,-0.005859,-0.539062,0.869629,0.6884533064071764,-32.172952802250535,108.91821799403839,0.5598679184913635,-0.16576099395751953,-0.22210705280303955,0.7808582186698914
5140502d-ea98-49dc-84f9-345e9630b20e,c6182466-ca39-4b66-ab45-5a7df317499e,1760515886735958352,-0.663757,0.526428,-0.127792,-0.007324,-0.54248,0.869629,0.6852338213236496,-32.172026575695604,108.86023560624436,0.5602579712867737,-0.16584689915180206,-0.2220325618982315,0.7805814146995544
5140502d-ea98-49dc-84f9-345e9630b20e,c6182466-ca39-4b66-ab45-5a7df317499e,1760515886743947352,-0.600815,0.768661,-0.066757,-0.006836,-0.544434,0.873535,0.6845306073744448,-32.171571137011156,108.77251419577782,0.5608546137809753,-0.1660098135471344,-0.2219058722257614,0.7801542282104492
5140502d-ea98-49dc-84f9-345e9630b20e,c6182466-ca39-4b66-ab45-5a7df317499e,1760515886754656352,-0.537872,0.831604,0.116348,-0.01416,-0.560547,0.868164,0.6863259393957384,-32.17377451906499,108.6185865422618,0.5619025230407715,-0.1663307100534439,-0.2216888964176178,0.7793931365013123
5140502d-ea98-49dc-84f9-345e9630b20e,c6182466-ca39-4b66-ab45-5a7df317499e,1760515886765365352,-0.844955,0.585556,0.116348,-0.016113,-0.554688,0.87207,0.6901460607432137,-32.18023817070948,108.52115272271958,0.5625635385513306,-0.16657669842243195,-0.22157268226146698,0.7788966298103333
5140502d-ea98-49dc-84f9-345e9630b20e,c6182466-ca39-4b66-ab45-5a7df317499e,1760515886776074352,-0.967026,0.890732,0.177383,-0.006348,-0.558105,0.871094,0.6899188249912016,-32.18206415897467,108.41655175534513,0.5632713437080383,-0.16678626835346222,-0.221434086561203,0.778379499912262
5140502d-ea98-49dc-84f9-345e9630b20e,c6182466-ca39-4b66-ab45-5a7df317499e,1760515886786716352,-0.722885,0.585556,0.60463,-0.011719,-0.549316,0.875977,0.6941981743196565,-32.18639954979068,108.16143877245449,0.5650051236152649,-0.16732913255691528,-0.22107060253620148,0.7771086692810059
5140502d-ea98-49dc-84f9-345e9630b20e,c6182466-ca39-4b66-ab45-5a7df317499e,1760515886797360352,-0.663757,0.587463,0.482559,-0.007812,-0.564453,0.878906,0.6917640450011948,-32.18876843700512,108.0213847047736,0.5659465193748474,-0.16759434342384338,-0.22089403867721558,0.7764164209365845
5140502d-ea98-49dc-84f9-345e9630b20e,c6182466-ca39-4b66-ab45-5a7df317499e,1760515886808004352,-0.417709,0.585556,0.299454,-0.014648,-0.554688,0.875488,0.6951491851825607,-32.192910518151315,107.8828701464224,0.5668854117393494,-0.1679045557975769,-0.220702663064003,0.7757185101509094
5140502d-ea98-49dc-84f9-345e9630b20e,c6182466-ca39-4b66-ab45-5a7df317499e,1760515886816009352,-0.297546,0.648499,0.482559,-0.012695,-0.554688,0.87207,0.6984821402355009,-32.190415101286845,107.74416195499421,0.5678338408470154,-0.16818182170391083,-0.22046582400798798,0.7750318050384521
5140502d-ea98-49dc-84f9-345e9630b20e,c6182466-ca39-4b66-ab45-5a7df317499e,1760515886824012352,0.070572,0.890732,0.543594,-0.018555,-0.540039,0.869141,0.700428056212875,-32.189233641661154,107.60465573691087,0.5687823295593262,-0.16845738887786865,-0.22024324536323547,0.774339497089386
5140502d-ea98-49dc-84f9-345e9630b20e,c6182466-ca39-4b66-ab45-5a7df317499e,1760515886832015352,0.25177,0.831604,0.360489,-0.02002,-0.536621,0.871094,0.7004858084495439,-32.186389247649146,107.5300608660751,0.5692903399467468,-0.16858705878257751,-0.22011399269104004,0.773974597454071
5140502d-ea98-49dc-84f9-345e9630b20e,c6182466-ca39-4b66-ab45-5a7df317499e,1760515886840018352,0.741959,0.768661,0.482559,-0.02002,-0.545898,0.871094,0.7003764121655904,-32.18443808768273,107.42772870717813,0.5699837803840637,-0.16877314448356628,-0.21995069086551666,0.7734699845314026
5140502d-ea98-49dc-84f9-345e9630b20e,c6182466-ca39-4b66-ab45-5a7df317499e,1760515886850734352,0.986099,0.402451,0.60463,-0.011719,-0.544434,0.867676,0.7000221507015272,-32.18384038500108,107.27361807275814,0.5710236430168152,-0.16906346380710602,-0.2197212427854538,0.7727043628692627
5140502d-ea98-49dc-84f9-345e9630b20e,c6182466-ca39-4b66-ab45-5a7df317499e,1760515886861450352,0.984192,0.465393,0.84877,-0.020508,-0.548828,0.875977,0.704412373662777,-32.18284438314299,107.117299095072,0.5720869898796082,-0.16938766837120056,-0.21946176886558533,0.7719201445579529
5140502d-ea98-49dc-84f9-345e9630b20e,c6182466-ca39-4b66-ab45-5a7df317499e,1760515886872166352,0.741959,0.097275,1.031876,-0.025879,-0.539551,0.869629,0.7202278879811636,-32.17401593891163,106.98074771565078,0.573049008846283,-0.16971156001091003,-0.21912109851837158,0.7712319493293762
5140502d-ea98-49dc-84f9-345e9630b20e,c6182466-ca39-4b66-ab45-5a7df317499e,1760515886880142352,0.621796,0.160217,1.031876,-0.020508,-0.538574,0.867187,0.7256639972759598,-32.17364989981348,106.84735910739882,0.5739572644233704,-0.17000125348567963,-0.21889370679855347,0.7705569863319397
5140502d-ea98-49dc-84f9-345e9630b20e,c6182466-ca39-4b66-ab45-5a7df317499e,1760515886888118352,0.436783,0.15831,1.581192,-0.020508,-0.541016,0.874512,0.7330411039012815,-32.168241869373816,106.72083703159154,0.5748293399810791,-0.17026539146900177,-0.21863242983818054,0.7699225544929504
5140502d-ea98-49dc-84f9-345e9630b20e,c6182466-ca39-4b66-ab45-5a7df317499e,1760515886896094352,0.312805,0.221252,1.947403,-0.023437,-0.540039,0.870117,0.7477832279340256,-32.16443286087337,106.60210217680952,0.575660228729248,-0.17057177424430847,-0.218356192111969,0.7693120837211609
5140502d-ea98-49dc-84f9-345e9630b20e,c6182466-ca39-4b66-ab45-5a7df317499e,1760515886904070352,0.009537,0.402451,1.825333,-0.012695,-0.544434,0.865234,0.7632540019687029,-32.1623153678859,106.5850389992343,0.5758072137832642,-0.17069755494594574,-0.21823880076408386,0.7692074775695801
5140502d-ea98-49dc-84f9-345e9630b20e,c6182466-ca39-4b66-ab45-5a7df317499e,1760515886915262352,0.007629,0.282288,2.008438,-0.018066,-0.533203,0.868652,0.7801765516258469,-32.160887717912935,106.51286575933905,0.5763257741928101,-0.17094136774539948,-0.21803653240203857,0.7688222527503967
5140502d-ea98-49dc-84f9-345e9630b20e,c6182466-ca39-4b66-ab45-5a7df317499e,1760515886926454352,0.312805,0.099182,1.886368,-0.020508,-0.549316,0.867676,0.8000339875267488,-32.160128276036076,106.41246268507484,0.5770379900932312,-0.17126166820526123,-0.21778157353401184,0.7682888507843018
5140502d-ea98-49dc-84f9-345e9630b20e,c6182466-ca39-4b66-ab45-5a7df317499e,1760515886937646352,0.253677,-0.207901,2.130508,-0.019531,-0.546875,0.869141,0.8155113530900782,-32.15548957374168,106.38378379348813,0.5772661566734314,-0.17139668762683868,-0.2176295518875122,0.768130362033844
5140502d-ea98-49dc-84f9-345e9630b20e,c6182466-ca39-4b66-ab45-5a7df317499e,1760515886947792352,0.312805,-0.144958,1.825333,-0.004395,-0.534668,0.861816,0.8342003655346795,-32.144356725962844,106.25702389520622,0.5781665444374084,-0.17170661687850952,-0.21727073192596436,0.7674853205680847
5140502d-ea98-49dc-84f9-345e9630b20e,c6182466-ca39-4b66-ab45-5a7df317499e,1760515886957940352,0.436783,-0.207901,2.191544,-0.016113,-0.536621,0.875977,0.846585723834331,-32.1367747113902,106.11905627500728,0.5791242718696594,-0.17201288044452667,-0.21695035696029663,0.7667849063873291
5140502d-ea98-49dc-84f9-345e9630b20e,c6182466-ca39-4b66-ab45-5a7df317499e,1760515886968088352,0.495911,-0.328064,1.886368,-0.020508,-0.52002,0.873535,0.853562594262708,-32.12528541240624,105.95758301396704,0.5802335143089294,-0.17230720818042755,-0.2165953814983368,0.7659801840782166
5140502d-ea98-49dc-84f9-345e9630b20e,c6182466-ca39-4b66-ab45-5a7df317499e,1760515886976069352,0.070572,-0.513077,1.398087,-0.009277,-0.537109,0.865723,0.8536423007096392,-32.119468109256914,105.81913570029965,0.5811668634414673,-0.17253996431827545,-0.21634766459465027,0.7652899026870728
5140502d-ea98-49dc-84f9-345e9630b20e,c6182466-ca39-4b66-ab45-5a7df317499e,1760515886984048352,-0.53978,-0.391006,1.153946,-0.002441,-0.535645,0.864258,0.8522232790123866,-32.11683702945328,105.6902779046459,0.5820280909538269,-0.17276038229465485,-0.21614310145378113,0.7646431922912598
5140502d-ea98-49dc-84f9-345e9630b20e,c6182466-ca39-4b66-ab45-5a7df317499e,1760515886992027352,-0.785828,-0.63324,0.543594,-0.003418,-0.544434,0.859375,0.8487299281497714,-32.11689159354985,105.55707213242323,0.582909882068634,-0.17298848927021027,-0.21596026420593262,0.7639713287353516
5140502d-ea98-49dc-84f9-345e9630b20e,c6182466-ca39-4b66-ab45-5a7df317499e,1760515887000006352,-0.968933,-0.511169,0.299454,-0.004883,-0.549316,0.859863,0.8467600927100439,-32.117009570859175,105.51010076548552,0.5832191109657288,-0.1730644702911377,-0.21590015292167664,0.7637350559234619
5140502d-ea98-49dc-84f9-345e9630b20e,c6182466-ca39-4b66-ab45-5a7df317499e,1760515887010676352,-1.457214,-0.389099,0.116348,-0.000977,-0.547363,0.856445,0.8415818830296399,-32.12544302893924,105.47446270516004,0.5834349393844604,-0.1731398105621338,-0.2159290611743927,0.7635449171066284
5140502d-ea98-49dc-84f9-345e9630b20e,c6182466-ca39-4b66-ab45-5a7df317499e,1760515887021346352,-1.333237,-0.391006,-0.371933,-0.008301,-0.524414,0.863769,0.8327465943104869,-32.136737415664626,105.35927050781405,0.5841695666313171,-0.17335522174835205,-0.21587538719177246,0.7629492878913879
5140502d-ea98-49dc-84f9-345e9630b20e,c6182466-ca39-4b66-ab45-5a7df317499e,1760515887032016352,-1.394272,-0.448227,-0.616074,-0.013184,-0.542969,0.862305,0.8200576570962251,-32.14848006200152,105.2525895986631,0.5848390460014343,-0.17353130877017975,-0.21585704386234283,0.7624013423919678
5140502d-ea98-49dc-84f9-345e9630b20e,c6182466-ca39-4b66-ab45-5a7df317499e,1760515887042653352,-1.516342,-0.448227,-0.616074,0.0,-0.546387,0.866211,0.7980114852418526,-32.16436941544383,105.04506226032491,0.5861546993255615,-0.17385631799697876,-0.21576109528541565,0.7613433599472046
5140502d-ea98-49dc-84f9-345e9630b20e,c6182466-ca39-4b66-ab45-5a7df317499e,1760515887053290352,-1.274109,-0.328064,-1.16539,-0.013672,-0.539062,0.874512,0.7900468775587747,-32.17126917510574,104.89525209531647,0.5871247053146362,-0.17412056028842926,-0.21562036871910095,0.760574996471405
5140502d-ea98-49dc-84f9-345e9630b20e,c6182466-ca39-4b66-ab45-5a7df317499e,1760515887063927352,-1.64032,-0.083923,-1.104355,-0.006348,-0.541504,0.87793,0.7824040542732403,-32.18142666542523,104.73332093604351,0.5881699919700623,-0.17442627251148224,-0.21548087894916534,0.7597364187240601
5140502d-ea98-49dc-84f9-345e9630b20e,c6182466-ca39-4b66-ab45-5a7df317499e,1760515887071949352,-1.514435,0.160217,-1.470566,-0.013184,-0.544434,0.857422,0.7774224120321247,-32.19699603341202,104.63395839765055,0.588796854019165,-0.1746596395969391,-0.21545861661434174,0.7592033743858337
5140502d-ea98-49dc-84f9-345e9630b20e,c6182466-ca39-4b66-ab45-5a7df317499e,1760515887079974352,-2.004623,0.585556,-1.104355,-0.01416,-0.534668,0.863281,0.7721100761946188,-32.20979624669403,104.54177888914502,0.5893790125846863,-0.17486323416233063,-0.2154303789138794,0.758712649345398
5140502d-ea98-49dc-84f9-345e9630b20e,c6182466-ca39-4b66-ab45-5a7df317499e,1760515887087999352,-1.882553,0.890732,-1.226425,-0.022949,-0.554199,0.875488,0.7757836357364426,-32.228372383047905,104.4145508165829,0.590201199054718,-0.17522181570529938,-0.21534043550491333,0.7580159902572632
5140502d-ea98-49dc-84f9-345e9630b20e,c6182466-ca39-4b66-ab45-5a7df317499e,1760515887096024352,-2.311707,0.892639,-1.531601,-0.004883,-0.550293,0.87207,0.7743263404035241,-32.24721994225768,104.31711549412664,0.5908156037330627,-0.17549189925193787,-0.21532385051250458,0.7574794292449951
5140502d-ea98-49dc-84f9-345e9630b20e,c6182466-ca39-4b66-ab45-5a7df317499e,1760515887106697352,-1.882553,0.711441,-1.592636,-0.007812,-0.538086,0.864258,0.7691649412579793,-32.260518507565116,104.27137639262108,0.5910890102386475,-0.1756119728088379,-0.21536855399608612,0.7572255730628967
5140502d-ea98-49dc-84f9-345e9630b20e,c6182466-ca39-4b66-ab45-5a7df317499e,1760515887117370352,-1.945496,0.709534,-1.531601,-0.010254,-0.537598,0.871094,0.7678257055303928,-32.27430736449849,104.11980952432525,0.5920675992965698,-0.1759587526321411,-0.21523430943489075,0.7564182281494141
5140502d-ea98-49dc-84f9-345e9630b20e,c6182466-ca39-4b66-ab45-5a7df317499e,1760515887128043352,-1.88446,0.831604,-1.28746,-0.012207,-0.551758,0.875977,0.765848185412131,-32.28976127186726,103.97075173427915,0.5930249094963074,-0.1763051152229309,-0.2151176929473877,0.7556204199790955
5140502d-ea98-49dc-84f9-345e9630b20e,c6182466-ca39-4b66-ab45-5a7df317499e,1760515887138815352,-1.331329,0.465393,-1.470566,-0.007812,-0.550293,0.874512,0.765019809824052,-32.313815574452306,103.71488671559021,0.5946740508079529,-0.17690375447273254,-0.2148866057395935,0.7542489767074585
5140502d-ea98-49dc-84f9-345e9630b20e,c6182466-ca39-4b66-ab45-5a7df317499e,1760515887149587352,-1.028061,0.28038,-1.409531,-0.005859,-0.543945,0.874512,0.7597656990931293,-32.31941232614767,103.56979710310912,0.5956105589866638,-0.17717009782791138,-0.21472667157649994,0.7534926533699036
5140502d-ea98-49dc-84f9-345e9630b20e,c6182466-ca39-4b66-ab45-5a7df317499e,1760515887160359352,-0.785828,0.282288,-1.104355,-0.009277,-0.555664,0.872559,0.7517435908039243,-32.32614660883528,103.46027038495939,0.5963056087493896,-0.17735740542411804,-0.21464335918426514,0.7529224157333374
5140502d-ea98-49dc-84f9-345e9630b20e,c6182466-ca39-4b66-ab45-5a7df317499e,1760515887170908352,-0.968933,0.648499,-1.28746,-0.001953,-0.553711,0.867676,0.7469559084931058,-32.33384669497192,103.35446326881201,0.5969803333282471,-0.17756402492523193,-0.21455515921115875,0.752363920211792
5140502d-ea98-49dc-84f9-345e9630b20e,c6182466-ca39-4b66-ab45-5a7df317499e,1760515887181457352,-0.785828,0.465393,-0.921249,-0.010742,-0.548828,0.860352,0.7432051713286628,-32.342932292822475,103.24745251511092,0.5976623296737671,-0.17778687179088593,-0.2144685983657837,0.7517942786216736
5140502d-ea98-49dc-84f9-345e9630b20e,c6182466-ca39-4b66-ab45-5a7df317499e,1760515887192006352,-1.211166,0.402451,-0.799179,-0.009277,-0.550781,0.862793,0.7438447206011356,-32.3441564938424,103.13035966802636,0.5984296202659607,-0.17801648378372192,-0.2142915278673172,0.7511798143386841
5140502d-ea98-49dc-84f9-345e9630b20e,c6182466-ca39-4b66-ab45-5a7df317499e,1760515887200010352,-0.785828,0.709534,-0.860214,-0.021973,-0.531738,0.867676,0.7479522754643786,-32.356359176517785,103.02144021635567,0.5991330742835999,-0.17831046879291534,-0.21418091654777527,0.7505807280540466
5140502d-ea98-49dc-84f9-345e9630b20e,c6182466-ca39-4b66-ab45-5a7df317499e,1760515887208013352,-1.091003,0.465393,-0.494003,-0.010742,-0.54834,0.856934,0.7468166475143924,-32.35923050309941,102.89687745212615,0.5999422669410706,-0.17855072021484375,-0.2140117585659027,0.7499251961708069
5140502d-ea98-49dc-84f9-345e9630b20e,c6182466-ca39-4b66-ab45-5a7df317499e,1760515887216016352,-1.333237,0.28038,-0.249863,-0.020508,-0.556152,0.870117,0.748993807155953,-32.36676105476057,102.75213314972412,0.6008819937705994,-0.1788744330406189,-0.21382401883602142,0.7491488456726074
5140502d-ea98-49dc-84f9-345e9630b20e,c6182466-ca39-4b66-ab45-5a7df317499e,1760515887224019352,-0.722885,0.528336,0.055313,-0.01416,-0.556641,0.87793,0.7514155039855372,-32.368083351917754,102.64386166419075,0.6015921235084534,-0.17909912765026093,-0.2136508673429489,0.7485743761062622
5140502d-ea98-49dc-84f9-345e9630b20e,c6182466-ca39-4b66-ab45-5a7df317499e,1760515887234674352,-0.968933,0.160217,0.116348,-0.013184,-0.549316,0.868652,0.7553284078174619,-32.36597488730614,102.53048942372652,0.6023428440093994,-0.1793249249458313,-0.2134391963481903,0.7479767799377441
5140502d-ea98-49dc-84f9-345e9630b20e,c6182466-ca39-4b66-ab45-5a7df317499e,1760515887245329352,-0.844955,0.22316,0.299454,-0.014648,-0.538574,0.867187,0.7566352045335376,-32.36610393122372,102.40071338196523,0.6031917929649353,-0.17957574129104614,-0.2132299393415451,0.7472918033599854
5140502d-ea98-49dc-84f9-345e9630b20e,c6182466-ca39-4b66-ab45-5a7df317499e,1760515887255984352,-0.53978,0.097275,0.60463,-0.010254,-0.54541,0.856934,0.7544214805711303,-32.366251217844244,102.28503843013502,0.6039415001869202,-0.17977721989154816,-0.21306118369102478,0.746685802936554
5140502d-ea98-49dc-84f9-345e9630b20e,c6182466-ca39-4b66-ab45-5a7df317499e,1760515887266663352,-0.844955,0.097275,0.116348,-0.01709,-0.551758,0.871094,0.7571680096329791,-32.36634445087965,102.18433940069565,0.6046023964881897,-0.1799827665090561,-0.21288923919200897,0.7461502552032471
5140502d-ea98-49dc-84f9-345e9630b20e,c6182466-ca39-4b66-ab45-5a7df317499e,1760515887277344352,-0.907898,0.831604,0.299454,-0.013184,-0.550293,0.865234,0.7580606103216828,-32.365692388396454,102.09708567770016,0.6051729917526245,-0.1801472008228302,-0.21274316310882568,0.7456895112991333
5140502d-ea98-49dc-84f9-345e9630b20e,c6182466-ca39-4b66-ab45-5a7df317499e,1760515887288025352,-1.152039,0.587463,0.665665,-0.005859,-0.547852,0.873535,0.7550712267910427,-32.36398394461296,101.97717851101986,0.6059499382972717,-0.18034128844738007,-0.21255920827388763,0.745063841342926
5140502d-ea98-49dc-84f9-345e9630b20e,c6182466-ca39-4b66-ab45-5a7df317499e,1760515887296011352,-1.091003,0.465393,0.360489,-0.018066,-0.5625,0.875488,0.7614577298035237,-32.37359831563959,101.85598232644438,0.606735110282898,-0.18065813183784485,-0.21239718794822693,0.744394063949585
5140502d-ea98-49dc-84f9-345e9630b20e,c6182466-ca39-4b66-ab45-5a7df317499e,1760515887303998352,-1.028061,0.528336,-0.005722,-0.01709,-0.54248,0.870605,0.7619309037160232,-32.372519270910225,101.80886526503991,0.6070436239242554,-0.18074284493923187,-0.21231335401535034,0.7441458106040955
5140502d-ea98-49dc-84f9-345e9630b20e,c6182466-ca39-4b66-ab45-5a7df317499e,1760515887311985352,-1.211166,0.528336,0.116348,-0.019043,-0.54834,0.865234,0.763168345926286,-32.371370440281375,101.70600207789774,0.607715368270874,-0.1809353232383728,-0.21213698387145996,0.7436008453369141
5140502d-ea98-49dc-84f9-345e9630b20e,c6182466-ca39-4b66-ab45-5a7df317499e,1760515887319972352,-1.152039,0.404358,-0.066757,-0.013672,-0.550293,0.866211,0.764355292826672,-32.36906870319135,101.60205512107558,0.6083952784538269,-0.18112321197986603,-0.21195149421691895,0.7430518269538879
5140502d-ea98-49dc-84f9-345e9630b20e,c6182466-ca39-4b66-ab45-5a7df317499e,1760515887330643352,-0.844955,0.585556,-0.188828,-0.009766,-0.556641,0.863769,0.7609670814594474,-32.37265967323218,101.49421643567642,0.6090826392173767,-0.18131963908672333,-0.2118223011493683,0.7424774169921875
5140502d-ea98-49dc-84f9-345e9630b20e,c6182466-ca39-4b66-ab45-5a7df317499e,1760515887341314352,-0.905991,1.073837,-0.066757,-0.008301,-0.568848,0.880859,0.7644296454600101,-32.37917633692965,101.38504825532922,0.609786331653595,-0.18157827854156494,-0.21167336404323578,0.741878867149353
5140502d-ea98-49dc-84f9-345e9630b20e,c6182466-ca39-4b66-ab45-5a7df317499e,1760515887351985352,-0.419617,1.014709,-0.371933,-0.003418,-0.567871,0.869141,0.763207274830962,-32.38184729341001,101.27103265229803,0.6105179190635681,-0.18179506063461304,-0.21151643991470337,0.7412685751914978
5140502d-ea98-49dc-84f9-345e9630b20e,c6182466-ca39-4b66-ab45-5a7df317499e,1760515887362672352,0.068665,1.625061,-0.249863,-0.018066,-0.550293,0.867676,0.7692294859526607,-32.38232948300771,101.15715547864272,0.6112646460533142,-0.18204665184020996,-0.21130667626857758,0.74065101146698
5140502d-ea98-49dc-84f9-345e9630b20e,c6182466-ca39-4b66-ab45-5a7df317499e,1760515887373359352,-0.114441,1.13678,-0.677109,-0.005859,-0.561035,0.86084,0.7757851733154908,-32.38239789322216,101.15440811383432,0.6112943887710571,-0.18209445476531982,-0.21126778423786163,0.74062579870224
5140502d-ea98-49dc-84f9-345e9630b20e,c6182466-ca39-4b66-ab45-5a7df317499e,1760515887384046352,-0.051498,1.379013,-0.555038,-0.006348,-0.54248,0.848144,0.7783420554119449,-32.380534655689466,101.11431315295444,0.6115610003471375,-0.18217498064041138,-0.21117833256721497,0.7404114007949829
5140502d-ea98-49dc-84f9-345e9630b20e,c6182466-ca39-4b66-ab45-5a7df317499e,1760515887392040352,-0.051498,1.134872,-0.127792,-0.013672,-0.543457,0.861816,0.7826474262559404,-32.3808297941746,100.94627780503593,0.6126535534858704,-0.18251381814479828,-0.21088986098766327,0.7395063638687134
5140502d-ea98-49dc-84f9-345e9630b20e,c6182466-ca39-4b66-ab45-5a7df317499e,1760515887400035352,-0.049591,1.319885,-0.677109,-0.013672,-0.555664,0.858887,0.7896095323331936,-32.38330165836794,100.86058851105781,0.613215446472168,-0.18272951245307922,-0.21073205769062042,0.7390322685241699
5140502d-ea98-49dc-84f9-345e9630b20e,c6182466-ca39-4b66-ab45-5a7df317499e,1760515887408030352,-0.051498,0.768661,-0.555038,-0.018066,-0.553711,0.864746,0.7929103201074371,-32.38434394720357,100.73645288366374,0.6140201687812805,-0.18298453092575073,-0.21052303910255432,0.7383602261543274
5140502d-ea98-49dc-84f9-345e9630b20e,c6182466-ca39-4b66-ab45-5a7df317499e,1760515887416025352,-0.417709,0.768661,-0.555038,-0.007812,-0.541016,0.857422,0.7948976866005657,-32.382618574783635,100.6176242947207,0.614791750907898,-0.18320631980895996,-0.21031136810779572,0.7377232313156128
5140502d-ea98-49dc-84f9-345e9630b20e,c6182466-ca39-4b66-ab45-5a7df317499e,1760515887426680352,-0.175476,0.831604,-0.371933,-0.022461,-0.552734,0.866211,0.7941335532813003,-32.38294234234205,100.498854149324,0.61555415391922,-0.18342101573944092,-0.2101275622844696,0.7370862364768982
5140502d-ea98-49dc-84f9-345e9630b20e,c6182466-ca39-4b66-ab45-5a7df317499e,1760515887437335352,-0.480652,0.953674,-0.616074,-0.01709,-0.553223,0.858887,0.7961612956543646,-32.38232387048173,100.41479107651597,0.6160993576049805,-0.18358483910560608,-0.20997805893421173,0.7366324067115784
5140502d-ea98-49dc-84f9-345e9630b20e,c6182466-ca39-4b66-ab45-5a7df317499e,1760515887447990352,-0.356674,0.890732,-0.555038,-0.010742,-0.55127,0.867187,0.8006136676718368,-32.38447086292865,100.34175577730224,0.6165736317634583,-0.18375873565673828,-0.20985089242458344,0.736228346824646
5140502d-ea98-49dc-84f9-345e9630b20e,c6182466-ca39-4b66-ab45-5a7df317499e,1760515887458645352,-0.417709,0.711441,-0.371933,-0.024902,-0.54248,0.873047,0.8031543310752833,-32.38135178769906,100.27540979118794,0.617009162902832,-0.1838798075914383,-0.20971068739891052,0.7358731031417847
5140502d-ea98-49dc-84f9-345e9630b20e,c6182466-ca39-4b66-ab45-5a7df317499e,1760515887469300352,-0.663757,0.587463,-0.371933,-0.019531,-0.552246,0.868652,0.8080832202816866,-32.38319881937339,100.24244055263148,0.6172270774841309,-0.18398168683052063,-0.20964312553405762,0.7356840968132019
5140502d-ea98-49dc-84f9-345e9630b20e,c6182466-ca39-4b66-ab45-5a7df317499e,1760515887479955352,-0.602722,0.526428,-0.555038,-0.012695,-0.558594,0.870117,0.8111818794029747,-32.38341779031371,100.17149585710914,0.6176877617835999,-0.18413250148296356,-0.20951388776302338,0.7352964282035828
5140502d-ea98-49dc-84f9-345e9630b20e,c6182466-ca39-4b66-ab45-5a7df317499e,1760515887490658352,-0.354767,0.831604,-0.371933,-0.029785,-0.543945,0.880859,0.8215196701831026,-32.384823852028106,99.9250456323625,0.619284451007843,-0.18465645611286163,-0.20907056331634521,0.7339469194412231
5140502d-ea98-49dc-84f9-345e9630b20e,c6182466-ca39-4b66-ab45-5a7df317499e,1760515887501362352,-0.53978,0.646591,-0.616074,-0.015137,-0.554199,0.871094,0.8226164080668249,-32.38544122472318,99.82201303975056,0.6199451684951782,-0.1848546862602234,-0.2089024782180786,0.7333869338035583
5140502d-ea98-49dc-84f9-345e9630b20e,c6182466-ca39-4b66-ab45-5a7df317499e,1760515887512066352,-0.234604,0.528336,-0.310898,-0.020996,-0.556152,0.863769,0.8265030395171303,-32.38563455885779,99.70305720740157,0.62071293592453,-0.185097336769104,-0.20869065821170807,0.732736349105835
5140502d-ea98-49dc-84f9-345e9630b20e,c6182466-ca39-4b66-ab45-5a7df317499e,1760515887520076352,-0.114441,0.648499,-0.310898,-0.008301,-0.546875,0.873535,0.8281534021195261,-32.38166613577962,99.59887690089451,0.6213878989219666,-0.18527613580226898,-0.20848789811134338,0.7321765422821045
5140502d-ea98-49dc-84f9-345e9630b20e,c6182466-ca39-4b66-ab45-5a7df317499e,1760515887528089352,0.070572,0.28038,-0.494003,-0.006348,-0.553711,0.872559,0.8291678440066559,-32.38097161238766,99.52030412004157,0.6218926906585693,-0.18542176485061646,-0.20835085213184357,0.7317500114440918
5140502d-ea98-49dc-84f9-345e9630b20e,c6182466-ca39-4b66-ab45-5a7df317499e,1760515887536102352,0.131607,0.585556,-0.127792,-0.027832,-0.54834,0.869629,0.8372533938646298,-32.381886298325085,99.45783604134988,0.6223047971725464,-0.18559186160564423,-0.20821169018745422,0.7313960790634155
5140502d-ea98-49dc-84f9-345e9630b20e,c6182466-ca39-4b66-ab45-5a7df317499e,1760515887544115352,0.619888,0.585556,-0.066757,-0.015625,-0.546875,0.875488,0.8383745440188949,-32.38128914139441,99.36562801351069,0.6228960752487183,-0.18576326966285706,-0.2080523669719696,0.7308943867683411
5140502d-ea98-49dc-84f9-345e9630b20e,c6182466-ca39-4b66-ab45-5a7df317499e,1760515887554735352,-0.051498,0.463486,-0.005722,-0.008301,-0.54248,0.861328,0.8392790432840896,-32.380509334389025,99.2338704447841,0.6237388849258423,-0.1860039234161377,-0.20782873034477234,0.730177640914917
5140502d-ea98-49dc-84f9-345e9630b20e,c6182466-ca39-4b66-ab45-5a7df317499e,1760515887565355352,0.070572,0.28038,0.116348,-0.018555,-0.540527,0.875,0.842375527947132,-32.37814357601857,99.17475629604401,0.6241247057914734,-0.1861179918050766,-0.20770075917243958,0.7298552989959717
5140502d-ea98-49dc-84f9-345e9630b20e,c6182466-ca39-4b66-ab45-5a7df317499e,1760515887575975352,0.068665,0.160217,0.116348,-0.01709,-0.553223,0.872559,0.8459463955986168,-32.37781720600808,99.14092175753791,0.6243471503257751,-0.18620029091835022,-0.20762425661087036,0.7296657562255859
5140502d-ea98-49dc-84f9-345e9630b20e,c6182466-ca39-4b66-ab45-5a7df317499e,1760515887586663352,0.070572,0.097275,0.543594,-0.014648,-0.552246,0.864258,0.8504813661157862,-32.38021953943707,98.93915667678891,0.6256354451179504,-0.1866074502468109,-0.20728665590286255,0.7285534143447876
5140502d-ea98-49dc-84f9-345e9630b20e,c6182466-ca39-4b66-ab45-5a7df317499e,1760515887597352352,-0.175476,-0.083923,0.299454,-0.019043,-0.541016,0.866699,0.854392628270375,-32.380747114034655,98.82457338214004,0.6263698935508728,-0.18684235215187073,-0.20708194375038147,0.7279200553894043
5140502d-ea98-49dc-84f9-345e9630b20e,c6182466-ca39-4b66-ab45-5a7df317499e,1760515887608041352,-0.354767,0.160217,-0.005722,-0.010742,-0.547363,0.855469,0.8555328180757548,-32.37943531981855,98.73788581451241,0.626924455165863,-0.18699905276298523,-0.20692594349384308,0.7274466156959534
5140502d-ea98-49dc-84f9-345e9630b20e,c6182466-ca39-4b66-ab45-5a7df317499e,1760515887618672352,-0.114441,-0.022888,0.299454,-0.012207,-0.549805,0.867676,0.8551747013342069,-32.379648387639826,98.64540334553924,0.6275103688240051,-0.18716487288475037,-0.20677827298641205,0.7269406318664551
5140502d-ea98-49dc-84f9-345e9630b20e,c6182466-ca39-4b66-ab45-5a7df317499e,1760515887629305352,-0.051498,0.040054,0.238419,-0.015625,-0.541992,0.868652,0.8596769916011824,-32.379154783641496,98.54287342843232,0.6281694173812866,-0.18737564980983734,-0.2065829038619995,0.726372480392456
5140502d-ea98-49dc-84f9-345e9630b20e,c6182466-ca39-4b66-ab45-5a7df317499e,1760515887639938352,0.312805,-0.083923,0.299454,-0.027344,-0.546875,0.861816,0.8666597643534378,-32.37707583273069,98.53015887363698,0.6282657980918884,-0.18743149936199188,-0.20651060342788696,0.7262952327728271
5140502d-ea98-49dc-84f9-345e9630b20e,c6182466-ca39-4b66-ab45-5a7df317499e,1760515887647973352,0.253677,0.040054,-0.005722,-0.013672,-0.550293,0.864746,0.8687277867643908,-32.37322940834745,98.42133585406485,0.628964900970459,-0.1876196265220642,-0.20629671216011047,0.7257021069526672
5140502d-ea98-49dc-84f9-345e9630b20e,c6182466-ca39-4b66-ab45-5a7df317499e,1760515887656009352,-0.175476,-0.267029,0.238419,-0.021973,-0.543457,0.877441,0.873847160159972,-32.36860931797687,98.34880747135117,0.629440426826477,-0.18775731325149536,-0.20612044632434845,0.7253041863441467
5140502d-ea98-49dc-84f9-345e9630b20e,c6182466-ca39-4b66-ab45-5a7df317499e,1760515887664045352,-0.049591,-0.328064,-0.005722,-0.008789,-0.55127,0.865723,0.8745816764910849,-32.36847031819652,98.31389170828612,0.6296629309654236,-0.18782399594783783,-0.2060583084821701,0.7251114249229431
5140502d-ea98-49dc-84f9-345e9630b20e,c6182466-ca39-4b66-ab45-5a7df317499e,1760515887672081352,-0.602722,-0.511169,-0.005722,-0.013184,-0.5625,0.862305,0.8764500965285872,-32.37255927361414,98.23882007165065,0.6301348805427551,-0.1879931390285492,-0.20595090091228485,0.7246879935264587
5140502d-ea98-49dc-84f9-345e9630b20e,c6182466-ca39-4b66-ab45-5a7df317499e,1760515887681652352,-0.354767,-0.816345,0.482559,-0.008301,-0.548828,0.871582,0.8773905455015584,-32.372919327887445,98.16039026853586,0.6306318640708923,-0.18814197182655334,-0.2058192938566208,0.724254310131073
5140502d-ea98-49dc-84f9-345e9630b20e,c6182466-ca39-4b66-ab45-5a7df317499e,1760515887691226352,-0.844955,-0.574112,0.482559,-0.025391,-0.55127,0.862793,0.8838980821598688,-32.373684833457666,98.08833013166033,0.631097674369812,-0.18831664323806763,-0.20566995441913605,0.7238455414772034
5140502d-ea98-49dc-84f9-345e9630b20e,c6182466-ca39-4b66-ab45-5a7df317499e,1760515887700800352,-0.480652,-0.816345,0.787735,-0.01416,-0.543945,0.873535,0.8861412796749313,-32.37060451779172,98.01930194531747,0.6315423846244812,-0.1884377896785736,-0.20552459359169006,0.7234672904014587
5140502d-ea98-49dc-84f9-345e9630b20e,c6182466-ca39-4b66-ab45-5a7df317499e,1760515887710374352,-0.722885,-0.631332,0.60463,-0.007324,-0.54834,0.868164,0.8842091016382709,-32.372873030786785,97.93346506084077,0.632077157497406,-0.18859194219112396,-0.20540840923786163,0.7229929566383362
5140502d-ea98-49dc-84f9-345e9630b20e,c6182466-ca39-4b66-ab45-5a7df317499e,1760515887719948352,-0.419617,-0.816345,0.909805,-0.021484,-0.546387,0.864746,0.8866421636567753,-32.37262504777345,97.81034544467309,0.6328583359718323,-0.1888265162706375,-0.20519065856933594,0.7223098278045654
5140502d-ea98-49dc-84f9-345e9630b20e,c6182466-ca39-4b66-ab45-5a7df317499e,1760515887730643352,-0.175476,-0.816345,1.031876,-0.007324,-0.555664,0.879394,0.8853864604178813,-32.3729604828291,97.73333657355639,0.6333408355712891,-0.1889582872390747,-0.2050727754831314,0.7218858599662781
5140502d-ea98-49dc-84f9-345e9630b20e,c6182466-ca39-4b66-ab45-5a7df317499e,1760515887741338352,-0.295639,-0.574112,0.97084,-0.03418,-0.556152,0.875488,0.8897181158634534,-32.3714004171896,97.73398575848002,0.6333469152450562,-0.18897582590579987,-0.20504003763198853,0.7218852639198303
5140502d-ea98-49dc-84f9-345e9630b20e,c6182466-ca39-4b66-ab45-5a7df317499e,1760515887752033352,-0.354767,-0.63324,0.84877,-0.01416,-0.543457,0.863281,0.8874947183682017,-32.36995409894013,97.67212052491021,0.6337348222732544,-0.18906454741954803,-0.20494113862514496,0.7215495705604553
5140502d-ea98-49dc-84f9-345e9630b20e,c6182466-ca39-4b66-ab45-5a7df317499e,1760515887762727352,-0.537872,-0.816345,0.7267,-0.015625,-0.54541,0.856445,0.8851946013322001,-32.370938198236324,97.54495286442007,0.6345295310020447,-0.18928281962871552,-0.2047501504421234,0.7208477854728699
5140502d-ea98-49dc-84f9-345e9630b20e,c6182466-ca39-4b66-ab45-5a7df317499e,1760515887773423352,-0.663757,-0.511169,0.360489,-0.01709,-0.545898,0.86084,0.8872519191188962,-32.369000284115266,97.44210781751117,0.6351829171180725,-0.18946874141693115,-0.20455655455589294,0.720278263092041
5140502d-ea98-49dc-84f9-345e9630b20e,c6182466-ca39-4b66-ab45-5a7df317499e,1760515887784119352,-0.602722,-0.450134,0.421524,-0.006836,-0.556641,0.875977,0.8858510125414981,-32.36858891033716,97.31971250903732,0.6359500288963318,-0.18967606127262115,-0.2043592482805252,0.7196024656295776
5140502d-ea98-49dc-84f9-345e9630b20e,c6182466-ca39-4b66-ab45-5a7df317499e,1760515887794748352,-1.274109,-0.63324,-0.127792,-0.022461,-0.554199,0.867676,0.8866526565277929,-32.36885842438502,97.20179134874986,0.6366912126541138,-0.18989278376102448,-0.20416119694709778,0.7189458012580872
5140502d-ea98-49dc-84f9-345e9630b20e,c6182466-ca39-4b66-ab45-5a7df317499e,1760515887805379352,-0.968933,-0.022888,-0.371933,-0.003906,-0.557129,0.869629,0.8780257476860862,-32.37260957216647,97.10424320885048,0.6372817754745483,-0.1900331676006317,-0.2040710598230362,0.7184109091758728
5140502d-ea98-49dc-84f9-345e9630b20e,c6182466-ca39-4b66-ab45-5a7df317499e,1760515887816010352,-0.907898,-0.63324,-0.249863,-0.021484,-0.553711,0.872559,0.8810816474139622,-32.37151669600857,97.04574985152566,0.6376555562019348,-0.1901504248380661,-0.20395015180110931,0.7180824279785156
5140502d-ea98-49dc-84f9-345e9630b20e,c6182466-ca39-4b66-ab45-5a7df317499e,1760515887824004352,-0.905991,-0.391006,-0.371933,-0.016113,-0.552734,0.869141,0.8771669753976055,-32.36832011085101,96.9015681226783,0.6385565996170044,-0.19036464393138885,-0.20371246337890625,0.717292070388794
5140502d-ea98-49dc-84f9-345e9630b20e,c6182466-ca39-4b66-ab45-5a7df317499e,1760515887831997352,-0.478745,-0.757217,-0.310898,-0.01123,-0.553223,0.870605,0.8758438221031063,-32.36979447286876,96.91046036443248,0.6384962797164917,-0.19034874439239502,-0.20374387502670288,0.7173410058021545
5140502d-ea98-49dc-84f9-345e9630b20e,c6182466-ca39-4b66-ab45-5a7df317499e,1760515887839990352,-0.419617,-0.63324,-0.249863,-0.023438,-0.552734,0.874512,0.8776426543785596,-32.370759785974215,96.84412764442126,0.638913094997406,-0.1904832422733307,-0.20362968742847443,0.7169665694236755
5140502d-ea98-49dc-84f9-345e9630b20e,c6182466-ca39-4b66-ab45-5a7df317499e,1760515887847983352,-0.537872,-0.144958,-0.066757,0.007324,-0.550781,0.858887,0.8709746086658141,-32.37325385639957,96.7546402092123,0.6394570469856262,-0.19061437249183655,-0.20353373885154724,0.7164738178253174
5140502d-ea98-49dc-84f9-345e9630b20e,c6182466-ca39-4b66-ab45-5a7df317499e,1760515887858651352,-0.844955,0.22316,-0.127792,-0.016602,-0.550293,0.855957,0.8724174929311079,-32.37414853610053,96.65051970027602,0.6401089429855347,-0.19081321358680725,-0.2033580094575882,0.7158884406089783
5140502d-ea98-49dc-84f9-345e9630b20e,c6182466-ca39-4b66-ab45-5a7df317499e,1760515887869319352,-1.152039,0.160217,-0.494003,-0.012695,-0.553223,0.857422,0.8730454841263637,-32.374586107221305,96.55264252017982,0.6407206058502197,-0.19099320471286774,-0.20319418609142303,0.7153395414352417
5140502d-ea98-49dc-84f9-345e9630b20e,c6182466-ca39-4b66-ab45-5a7df317499e,1760515887879987352,-1.211166,0.768661,-0.494003,-0.010742,-0.549316,0.861816,0.876139649569861,-32.385992050216935,96.46041178894599,0.6412836909294128,-0.19123950600624084,-0.2030945122241974,0.7147972583770752
5140502d-ea98-49dc-84f9-345e9630b20e,c6182466-ca39-4b66-ab45-5a7df317499e,1760515887887993352,-1.211166,0.15831,-0.921249,-0.010254,-0.553711,0.869141,0.875141416602748,-32.393384939280416,96.38337182684971,0.641750693321228,-0.19141097366809845,-0.20301775634288788,0.7143539190292358
5140502d-ea98-49dc-84f9-345e9630b20e,c6182466-ca39-4b66-ab45-5a7df317499e,1760515887896000352,-1.331329,0.160217,-0.860214,-0.023437,-0.55957,0.858887,0.8776348771244445,-32.40888722975995,96.32655633215049,0.6420847773551941,-0.19161356985569,-0.2030058354139328,0.7140027284622192
5140502d-ea98-49dc-84f9-345e9630b20e,c6182466-ca39-4b66-ab45-5a7df317499e,1760515887904007352,-0.967026,0.402451,-0.677109,-0.013672,-0.556641,0.868164,0.8748149976698163,-32.418814142494206,96.29740074458617,0.6422457695007324,-0.19170302152633667,-0.20303496718406677,0.7138255834579468
5140502d-ea98-49dc-84f9-345e9630b20e,c6182466-ca39-4b66-ab45-5a7df317499e,1760515887912014352,-0.663757,0.038147,-1.04332,-0.015625,-0.569824,0.868164,0.8751686423542081,-32.424542487168125,96.22046393333554,0.6427164673805237,-0.1918734610080719,-0.20294003188610077,0.7133830189704895
5140502d-ea98-49dc-84f9-345e9630b20e,c6182466-ca39-4b66-ab45-5a7df317499e,1760515887922677352,-0.480652,0.099182,-0.555038,0.006348,-0.56543,0.869629,0.8732352196915916,-32.42831908333482,96.14119639088642,0.6432003974914551,-0.19202286005020142,-0.20284169912338257,0.7129344940185547
5140502d-ea98-49dc-84f9-345e9630b20e,c6182466-ca39-4b66-ab45-5a7df317499e,1760515887933340352,0.009537,-0.085831,-0.860214,-0.007812,-0.558105,0.864746,0.8728242494379854,-32.4323346699318,96.11894211089053,0.64333176612854,-0.19208213686943054,-0.20283178985118866,0.7128027677536011
5140502d-ea98-49dc-84f9-345e9630b20e,c6182466-ca39-4b66-ab45-5a7df317499e,1760515887944003352,0.37384,0.160217,-0.371933,-0.016602,-0.546387,0.86084,0.8757018512173298,-32.431588182179226,96.07977579894697,0.6435816287994385,-0.19216516613960266,-0.20274530351161957,0.7125794291496277
5140502d-ea98-49dc-84f9-345e9630b20e,c6182466-ca39-4b66-ab45-5a7df317499e,1760515887954666352,0.436783,0.040054,-0.494003,-0.022949,-0.560547,0.859375,0.8823458350563173,-32.431644170769154,95.91751442059505,0.6446016430854797,-0.19249363243579865,-0.20243597030639648,0.7116561532020569
5140502d-ea98-49dc-84f9-345e9630b20e,c6182466-ca39-4b66-ab45-5a7df317499e,1760515887965329352,0.190735,0.221252,-0.066757,-0.016602,-0.556152,0.864258,0.8853220903002801,-32.43781557170909,95.85136050348314,0.645007848739624,-0.1926635056734085,-0.20234651863574982,0.7112674713134766
5140502d-ea98-49dc-84f9-345e9630b20e,c6182466-ca39-4b66-ab45-5a7df317499e,1760515887975992352,-0.051498,0.040054,0.238419,-0.010742,-0.557129,0.867187,0.8879809900384756,-32.4417659482955,95.8156487986569,0.6452279090881348,-0.19276519119739532,-0.20229610800743103,0.7110546231269836
5140502d-ea98-49dc-84f9-345e9630b20e,c6182466-ca39-4b66-ab45-5a7df317499e,1760515887986663352,0.007629,0.099182,0.787735,-0.003418,-0.546875,0.864746,0.884616801557686,-32.441179051820605,95.73819407872335,0.6457033753395081,-0.19287773966789246,-0.20218107104301453,0.7106250524520874
5140502d-ea98-49dc-84f9-345e9630b20e,c6182466-ca39-4b66-ab45-5a7df317499e,1760515887997335352,-0.234604,0.711441,0.665665,-0.018555,-0.562988,0.858887,0.8892010849721742,-32.44602842211737,95.66177239164158,0.6461775302886963,-0.19306814670562744,-0.20205672085285187,0.7101776003837585
5140502d-ea98-49dc-84f9-345e9630b20e,c6182466-ca39-4b66-ab45-5a7df317499e,1760515888008007352,-0.175476,0.343323,0.60463,-0.01123,-0.54834,0.866211,0.8920321413093527,-32.44531835300004,95.6669626333861,0.6461514830589294,-0.19307255744934082,-0.20204508304595947,0.7102034091949463
5140502d-ea98-49dc-84f9-345e9630b20e,c6182466-ca39-4b66-ab45-5a7df317499e,1760515888018659352,0.007629,0.526428,0.421524,-0.002441,-0.554688,0.851562,0.8867039613107204,-32.44737723014288,95.53011769198226,0.6469864845275879,-0.1932922750711441,-0.20185725390911102,0.7094364762306213
5140502d-ea98-49dc-84f9-345e9630b20e,c6182466-ca39-4b66-ab45-5a7df317499e,1760515888029310352,-0.114441,-0.022888,0.360489,0.000977,-0.560547,0.861816,0.8848501156714675,-32.45030120808894,95.47456514271752,0.647322416305542,-0.19339507818222046,-0.2017921656370163,0.7091204524040222
5140502d-ea98-49dc-84f9-345e9630b20e,c6182466-ca39-4b66-ab45-5a7df317499e,1760515888039961352,-0.175476,-0.022888,0.177383,-0.00293,-0.556641,0.87207,0.8791131434202554,-32.45047261871555,95.4090031519481,0.6477176547050476,-0.19347599148750305,-0.20171497762203217,0.7087593078613281
5140502d-ea98-49dc-84f9-345e9630b20e,c6182466-ca39-4b66-ab45-5a7df317499e,1760515888047973352,0.131607,0.463486,-0.005722,-0.003906,-0.558105,0.880371,0.8784562216035727,-32.4490684016593,95.32593671353456,0.6482323408126831,-0.19361019134521484,-0.20156967639923096,0.7082933187484741
5140502d-ea98-49dc-84f9-345e9630b20e,c6182466-ca39-4b66-ab45-5a7df317499e,1760515888055987352,-0.112534,0.402451,-0.371933,-0.009766,-0.556152,0.866211,0.8742713708048011,-32.4509088499597,95.26373502125524,0.6486064195632935,-0.19370408356189728,-0.20149965584278107,0.7079450488090515
5140502d-ea98-49dc-84f9-345e9630b20e,c6182466-ca39-4b66-ab45-5a7df317499e,1760515888064001352,0.007629,0.099182,-0.555038,-0.019043,-0.557129,0.875,0.8759677872858807,-32.45208218811017,95.2073361131587,0.6489558815956116,-0.19382032752037048,-0.2014019638299942,0.7076206803321838
5140502d-ea98-49dc-84f9-345e9630b20e,c6182466-ca39-4b66-ab45-5a7df317499e,1760515888072015352,0.133514,0.831604,-0.555038,-0.012207,-0.558105,0.868164,0.8743307601227391,-32.456097816011486,95.17254501703613,0.6491613984107971,-0.19389398396015167,-0.201377272605896,0.7074190378189087
5140502d-ea98-49dc-84f9-345e9630b20e,c6182466-ca39-4b66-ab45-5a7df317499e,1760515888082710352,-0.051498,0.528336,-0.616074,-0.022461,-0.547852,0.876953,0.8762782077206865,-32.45310406468001,95.12086693188037,0.6494885683059692,-0.1939799189567566,-0.20126022398471832,0.7071284055709839
5140502d-ea98-49dc-84f9-345e9630b20e,c6182466-ca39-4b66-ab45-5a7df317499e,1760515888093405352,-0.051498,0.646591,-0.371933,-0.01709,-0.57666,0.869629,0.878320187609817,-32.456249453292756,95.03804916311087,0.6499980092048645,-0.19415567815303802,-0.20112787187099457,0.7066495418548584
5140502d-ea98-49dc-84f9-345e9630b20e,c6182466-ca39-4b66-ab45-5a7df317499e,1760515888104100352,0.253677,1.134872,-0.494003,-0.01123,-0.5625,0.879883,0.8824396579362627,-32.454309597891665,95.04360978006869,0.6499740481376648,-0.1941603571176529,-0.20110191404819489,0.7066777348518372
5140502d-ea98-49dc-84f9-345e9630b20e,c6182466-ca39-4b66-ab45-5a7df317499e,1760515888114731352,0.862122,1.625061,-0.494003,-0.01709,-0.543945,0.878906,0.900093063515123,-32.438406201811254,94.93812725480234,0.650680661201477,-0.19436432421207428,-0.20072446763515472,0.7060784101486206
5140502d-ea98-49dc-84f9-345e9630b20e,c6182466-ca39-4b66-ab45-5a7df317499e,1760515888125361352,1.23024,1.379013,-0.127792,-0.02002,-0.540039,0.875977,0.9146310739192187,-32.421069114392466,94.86029985834573,0.6512132287025452,-0.19449210166931152,-0.20040258765220642,0.7056435346603394
5140502d-ea98-49dc-84f9-345e9630b20e,c6182466-ca39-4b66-ab45-5a7df317499e,1760515888135991352,1.413345,1.379013,-0.005722,-0.017578,-0.541992,0.87207,0.9312995941801648,-32.406833495704895,94.78225442482227,0.6517455577850342,-0.1946505755186081,-0.2000872939825058,0.7051976919174194
5140502d-ea98-49dc-84f9-345e9630b20e,c6182466-ca39-4b66-ab45-5a7df317499e,1760515888144261352,1.413345,1.256943,0.360489,-0.016602,-0.560547,0.852051,0.9474795362108955,-32.39971497652843,94.71576991822485,0.6521942019462585,-0.19482584297657013,-0.19983826577663422,0.7048050165176392
5140502d-ea98-49dc-84f9-345e9630b20e,c6182466-ca39-4b66-ab45-5a7df317499e,1760515888152530352,1.167297,0.465393,0.60463,-0.020508,-0.553711,0.858887,0.9640699557193004,-32.388469203874976,94.64410922977173,0.6526817083358765,-0.19498902559280396,-0.19955246150493622,0.7043895125389099
5140502d-ea98-49dc-84f9-345e9630b20e,c6182466-ca39-4b66-ab45-5a7df317499e,1760515888160799352,1.047134,0.768661,0.60463,-0.020508,-0.548828,0.863281,0.9730210543578041,-32.38310806255075,94.56136063957553,0.6532143354415894,-0.19515766203403473,-0.1993274986743927,0.703912615776062
5140502d-ea98-49dc-84f9-345e9630b20e,c6182466-ca39-4b66-ab45-5a7df317499e,1760515888176796352,0.619888,0.585556,0.421524,-0.01123,-0.546875,0.854004,0.9873231743328229,-32.37830172940995,94.45567596389425,0.6538957953453064,-0.19540192186832428,-0.19903618097305298,0.7032942771911621
5140502d-ea98-49dc-84f9-345e9630b20e,c6182466-ca39-4b66-ab45-5a7df317499e,1760515888184525352,0.375748,0.585556,0.482559,-0.006348,-0.540527,0.850098,0.9855081728743109,-32.37614763174839,94.39409783866975,0.6542739272117615,-0.19548548758029938,-0.19892823696136475,0.7029498219490051
5140502d-ea98-49dc-84f9-345e9630b20e,c6182466-ca39-4b66-ab45-5a7df317499e,1760515888192254352,0.009537,0.402451,0.360489,-0.015137,-0.533203,0.859375,0.9891549002071263,-32.37079630399451,94.3836993083182,0.654352605342865,-0.19549551606178284,-0.19885669648647308,0.7028940320014954
5140502d-ea98-49dc-84f9-345e9630b20e,c6182466-ca39-4b66-ab45-5a7df317499e,1760515888199983352,0.133514,0.160217,0.116348,-0.029297,-0.539062,0.86084,0.990300260001851,-32.36828606938888,94.38709755165154,0.6543377637863159,-0.19548238813877106,-0.19884048402309418,0.7029160857200623
5140502d-ea98-49dc-84f9-345e9630b20e,c6182466-ca39-4b66-ab45-5a7df317499e,1760515888210670352,-0.356674,0.28038,0.177383,-0.011719,-0.543945,0.863769,0.9907768570821979,-32.365620681181426,94.3124334035916,0.6548007130622864,-0.19559966027736664,-0.19869393110275269,0.7024937272071838
5140502d-ea98-49dc-84f9-345e9630b20e,c6182466-ca39-4b66-ab45-5a7df317499e,1760515888221357352,-0.417709,-0.085831,-0.005722,-0.009277,-0.541992,0.865723,0.9881964222072694,-32.360067104065216,94.22078426951815,0.6553667783737183,-0.19571112096309662,-0.19851800799369812,0.7019843459129333
5140502d-ea98-49dc-84f9-345e9630b20e,c6182466-ca39-4b66-ab45-5a7df317499e,1760515888232044352,-0.354767,0.038147,0.055313,-0.02002,-0.559082,0.858398,0.9873366932188696,-32.362726244007405,94.12228339891887,0.655964195728302,-0.19589155912399292,-0.19837097823619843,0.7014173865318298
5140502d-ea98-49dc-84f9-345e9630b20e,c6182466-ca39-4b66-ab45-5a7df317499e,1760515888242704352,-0.905991,-0.024796,-0.432968,-0.007324,-0.547363,0.870117,0.9836329639153312,-32.360625010604956,94.01892447870866,0.6565935611724854,-0.19603580236434937,-0.19820252060890198,0.7008355259895325
5140502d-ea98-49dc-84f9-345e9630b20e,c6182466-ca39-4b66-ab45-5a7df317499e,1760515888253365352,-1.089096,0.097275,-0.860214,-0.009766,-0.556152,0.876465,0.9792997250418003,-32.36560785581956,93.92428504799727,0.6571566462516785,-0.196201354265213,-0.19809599220752716,0.7002913951873779
5140502d-ea98-49dc-84f9-345e9630b20e,c6182466-ca39-4b66-ab45-5a7df317499e,1760515888264026352,-1.028061,0.28038,-1.104355,-0.017578,-0.538086,0.868652,0.9764377211815085,-32.37360397422107,93.8438049322609,0.6576305031776428,-0.19636860489845276,-0.19802363216876984,0.6998199820518494
5140502d-ea98-49dc-84f9-345e9630b20e,c6182466-ca39-4b66-ab45-5a7df317499e,1760515888272008352,-0.968933,0.221252,-1.226425,-0.008301,-0.552246,0.880371,0.9623555763154829,-32.39466041315388,93.8404345152898,0.6575928330421448,-0.19640864431858063,-0.19822785258293152,0.6997863054275513
5140502d-ea98-49dc-84f9-345e9630b20e,c6182466-ca39-4b66-ab45-5a7df317499e,1760515888279992352,-0.785828,0.465393,-1.470566,-0.02002,-0.550781,0.87793,0.9612942916693049,-32.40035525328896,93.79226864585922,0.6578758955001831,-0.1965179741382599,-0.19818629324436188,0.6995013356208801
5140502d-ea98-49dc-84f9-345e9630b20e,c6182466-ca39-4b66-ab45-5a7df317499e,1760515888287976352,-0.663757,0.587463,-1.348495,-0.018066,-0.543457,0.866699,0.9647391281234439,-32.40714666761372,93.75978014192515,0.6580691933631897,-0.19663399457931519,-0.19815242290496826,0.6992964148521423
5140502d-ea98-49dc-84f9-345e9630b20e,c6182466-ca39-4b66-ab45-5a7df317499e,1760515888295960352,-0.295639,0.402451,-1.348495,-0.008301,-0.560547,0.873047,0.9604572309282395,-32.413441436890025,93.75350329231898,0.6580899357795715,-0.19665467739105225,-0.19820483028888702,0.6992562413215637
5140502d-ea98-49dc-84f9-345e9630b20e,c6182466-ca39-4b66-ab45-5a7df317499e,1760515888306680352,-0.051498,0.28038,-1.28746,-0.025879,-0.554688,0.878418,0.966333587626585,-32.41057267173467,93.71291256637598,0.6583523750305176,-0.19674432277679443,-0.1980838179588318,0.6990182399749756
5140502d-ea98-49dc-84f9-345e9630b20e,c6182466-ca39-4b66-ab45-5a7df317499e,1760515888317400352,-0.175476,0.587463,-0.860214,-0.022949,-0.550293,0.869629,0.9697154006868663,-32.40995647817931,93.6532327729365,0.6587231755256653,-0.1968645602464676,-0.1979581117630005,0.6986705660820007
5140502d-ea98-49dc-84f9-345e9630b20e,c6182466-ca39-4b66-ab45-5a7df317499e,1760515888328120352,0.190735,0.831604,-0.799179,-0.021484,-0.546387,0.868164,0.9718071457891826,-32.409107114270384,93.57694238192995,0.6591931581497192,-0.19700418412685394,-0.19780977070331573,0.6982298493385315
5140502d-ea98-49dc-84f9-345e9630b20e,c6182466-ca39-4b66-ab45-5a7df317499e,1760515888338740352,-0.356674,0.28038,-0.066757,-0.037598,-0.566406,0.865723,0.9790997912485291,-32.41335546349894,93.54184820332523,0.659412682056427,-0.19713349640369415,-0.19773346185684204,0.6980076432228088
5140502d-ea98-49dc-84f9-345e9630b20e,c6182466-ca39-4b66-ab45-5a7df317499e,1760515888349358352,-0.722885,0.15831,0.177383,-0.020508,-0.549805,0.858887,0.9806184489494726,-32.41532067603475,93.50677935490597,0.6596257090568542,-0.1972145140171051,-0.1976764053106308,0.697799563407898
5140502d-ea98-49dc-84f9-345e9630b20e,c6182466-ca39-4b66-ab45-5a7df317499e,1760515888359976352,-0.600815,0.28038,0.360489,-0.015625,-0.560059,0.864258,0.9858095711411978,-32.41732585112653,93.47155409138007,0.6598458886146545,-0.19731834530830383,-0.1975981444120407,0.6975842118263245
5140502d-ea98-49dc-84f9-345e9630b20e,c6182466-ca39-4b66-ab45-5a7df317499e,1760515888370720352,-0.907898,0.160217,0.543594,-0.014648,-0.54834,0.870117,0.9906953261051412,-32.41504400283072,93.47121352780813,0.6598600745201111,-0.1973356008529663,-0.19755546748638153,0.6975780129432678
5140502d-ea98-49dc-84f9-345e9630b20e,c6182466-ca39-4b66-ab45-5a7df317499e,1760515888381464352,-0.356674,0.28038,0.60463,-0.012695,-0.539551,0.868652,0.988937027557893,-32.41285176997925,93.39536297406458,0.6603221893310547,-0.19744306802749634,-0.19742153584957123,0.6971480846405029
5140502d-ea98-49dc-84f9-345e9630b20e,c6182466-ca39-4b66-ab45-5a7df317499e,1760515888392208352,-0.297546,0.160217,0.360489,-0.024902,-0.538574,0.867187,0.9910168496134255,-32.40881303300228,93.32884774068438,0.6607368588447571,-0.19754710793495178,-0.1972702294588089,0.6967684626579285
5140502d-ea98-49dc-84f9-345e9630b20e,c6182466-ca39-4b66-ab45-5a7df317499e,1760515888400157352,-0.78392,0.585556,-0.432968,-0.01123,-0.554199,0.861328,0.9865929493766015,-32.40623761288877,93.28545572201625,0.660997211933136,-0.19758012890815735,-0.19720520079135895,0.6965305209159851
5140502d-ea98-49dc-84f9-345e9630b20e,c6182466-ca39-4b66-ab45-5a7df317499e,1760515888408106352,-0.968933,0.099182,-0.616074,-0.012207,-0.542969,0.856934,0.985917847247465,-32.40620095207964,93.23017162602825,0.6613320708274841,-0.19767093658447266,-0.1971135288476944,0.6962127685546875
5140502d-ea98-49dc-84f9-345e9630b20e,c6182466-ca39-4b66-ab45-5a7df317499e,1760515888416055352,-1.394272,0.097275,-1.04332,-0.010254,-0.539062,0.851562,0.9853067813454731,-32.4132656619957,93.17085464519037,0.6616798639297485,-0.19780981540679932,-0.1970578134059906,0.6958585381507874
5140502d-ea98-49dc-84f9-345e9630b20e,c6182466-ca39-4b66-ab45-5a7df317499e,1760515888424004352,-2.250671,-0.450134,-1.04332,-0.011719,-0.541016,0.854492,0.9762368255891855,-32.42622680544914,93.10291650907945,0.6620556712150574,-0.19794605672359467,-0.19707193970680237,0.6954582333564758
5140502d-ea98-49dc-84f9-345e9630b20e,c6182466-ca39-4b66-ab45-5a7df317499e,1760515888434656352,-2.799988,-0.328064,-1.897812,-0.005859,-0.544434,0.847656,0.9596152960490197,-32.447861739678395,93.04215080740934,0.6623606085777283,-0.1980741322040558,-0.1971948742866516,0.6950964331626892
5140502d-ea98-49dc-84f9-345e9630b20e,c6182466-ca39-4b66-ab45-5a7df317499e,1760515888445308352,-3.652573,-0.574112,-2.325058,-0.002441,-0.545898,0.845703,0.9358376732511731,-32.47779997909793,92.9893043195243,0.6625913977622986,-0.19819311797618866,-0.19742335379123688,0.6947776675224304
5140502d-ea98-49dc-84f9-345e9630b20e,c6182466-ca39-4b66-ab45-5a7df317499e,1760515888455960352,-4.081726,-0.267029,-2.569199,-0.013672,-0.540039,0.839844,0.9162565509834368,-32.51417937335213,92.92979699167613,0.6628589630126953,-0.19838635623455048,-0.19765512645244598,0.6944013237953186
5140502d-ea98-49dc-84f9-345e9630b20e,c6182466-ca39-4b66-ab45-5a7df317499e,1760515888466669352,-4.812241,0.28038,-3.240585,0.006348,-0.552246,0.851562,0.8699233724377684,-32.598333710157554,92.89007454559052,0.6628817319869995,-0.1986587792634964,-0.19836638867855072,0.6940987706184387
5140502d-ea98-49dc-84f9-345e9630b20e,c6182466-ca39-4b66-ab45-5a7df317499e,1760515888477378352,-5.363464,0.831604,-3.545761,0.003906,-0.551758,0.87207,0.8523534335648308,-32.64429101432016,92.79086829237492,0.6633763909339905,-0.19898897409439087,-0.19857534766197205,0.6934714913368225
5140502d-ea98-49dc-84f9-345e9630b20e,c6182466-ca39-4b66-ab45-5a7df317499e,1760515888488087352,-5.4245,1.441956,-3.973007,-0.007324,-0.549316,0.85498,0.8416927361134693,-32.69485797690799,92.67828323481605,0.6639555096626282,-0.19941121339797974,-0.19874849915504456,0.6927459836006165
5140502d-ea98-49dc-84f9-345e9630b20e,c6182466-ca39-4b66-ab45-5a7df317499e,1760515888498756352,-5.666733,2.0504,-3.667831,-0.013184,-0.552734,0.862305,0.8388825403498221,-32.745400208010864,92.59662624184445,0.664360523223877,-0.19982755184173584,-0.19892922043800354,0.6921855807304382
5140502d-ea98-49dc-84f9-345e9630b20e,c6182466-ca39-4b66-ab45-5a7df317499e,1760515888509424352,-5.971909,1.867294,-3.484726,-0.031738,-0.560547,0.84668,0.8442390704255083,-32.800359481877614,92.51709160643948,0.6647589802742004,-0.20031529664993286,-0.19909250736236572,0.6916149258613586
5140502d-ea98-49dc-84f9-345e9630b20e,c6182466-ca39-4b66-ab45-5a7df317499e,1760515888520092352,-6.33812,1.928329,-3.05748,-0.027832,-0.550781,0.861816,0.8496373670136627,-32.856885004023695,92.43266031345985,0.6651838421821594,-0.2008211761713028,-0.1992558389902115,0.6910123229026794
5140502d-ea98-49dc-84f9-345e9630b20e,c6182466-ca39-4b66-ab45-5a7df317499e,1760515888528075352,-6.33812,1.867294,-2.447128,-0.022949,-0.566895,0.862793,0.8610889686717311,-32.96853472145464,92.23272442506588,0.666222095489502,-0.20188367366790771,-0.19951345026493073,0.6896268129348755
5140502d-ea98-49dc-84f9-345e9630b20e,c6182466-ca39-4b66-ab45-5a7df317499e,1760515888536059352,-5.483627,2.233505,-1.897812,-0.032227,-0.571777,0.861328,0.8787799103381385,-33.020597492033474,92.18220924087666,0.6664697527885437,-0.20237943530082703,-0.1996360570192337,0.6892065405845642
5140502d-ea98-49dc-84f9-345e9630b20e,c6182466-ca39-4b66-ab45-5a7df317499e,1760515888544043352,-4.995346,2.233505,-1.28746,-0.025391,-0.573242,0.855469,0.8954171675279655,-33.067964689149676,92.10770673107736,0.6668673157691956,-0.2028835415840149,-0.19969356060028076,0.6886568665504456
5140502d-ea98-49dc-84f9-345e9630b20e,c6182466-ca39-4b66-ab45-5a7df317499e,1760515888552027352,-4.627228,1.991272,-0.860214,-0.021484,-0.573242,0.864258,0.9179030196951318,-33.108665887541626,92.04997544574404,0.6671850681304932,-0.20335501432418823,-0.19970597326755524,0.6882062554359436
5140502d-ea98-49dc-84f9-345e9630b20e,c6182466-ca39-4b66-ab45-5a7df317499e,1760515888562702352,-3.957748,2.0504,-0.310898,-0.034668,-0.586914,0.873047,0.9487496990367927,-33.144979876999074,92.0589538765387,0.6671239733695984,-0.20373499393463135,-0.19976143538951874,0.6881369352340698
5140502d-ea98-49dc-84f9-345e9630b20e,c6182466-ca39-4b66-ab45-5a7df317499e,1760515888573377352,-3.408432,2.233505,0.177383,-0.027344,-0.566895,0.869629,0.9751978893255492,-33.17415402050287,92.03835438115769,0.6672447919845581,-0.2040986716747284,-0.19974680244922638,0.6879162788391113
5140502d-ea98-49dc-84f9-345e9630b20e,c6182466-ca39-4b66-ab45-5a7df317499e,1760515888584052352,-2.43187,1.867294,0.482559,-0.020996,-0.585449,0.864746,1.0030579784758393,-33.19800177068094,91.97100036179742,0.6676574945449829,-0.20452141761779785,-0.19960826635360718,0.6874302625656128
5140502d-ea98-49dc-84f9-345e9630b20e,c6182466-ca39-4b66-ab45-5a7df317499e,1760515888594691352,-1.819611,1.625061,1.276016,-0.025879,-0.574707,0.87207,1.033975527953148,-33.22015089368329,91.91287759315696,0.6680226922035217,-0.2049364298582077,-0.19945774972438812,0.6869953870773315
5140502d-ea98-49dc-84f9-345e9630b20e,c6182466-ca39-4b66-ab45-5a7df317499e,1760515888605330352,-1.516342,1.688004,1.459122,-0.013672,-0.563477,0.861328,1.0614490662656744,-33.23552891899768,91.86380549861798,0.6683387756347656,-0.20527562499046326,-0.19930237531661987,0.6866317391395569
5140502d-ea98-49dc-84f9-345e9630b20e,c6182466-ca39-4b66-ab45-5a7df317499e,1760515888615969352,-1.455307,1.562119,1.642227,-0.01416,-0.563965,0.859375,1.0816720114464082,-33.25097011034111,91.82175520686631,0.6685999035835266,-0.20555947721004486,-0.1992020308971405,0.6863215565681458
5140502d-ea98-49dc-84f9-345e9630b20e,c6182466-ca39-4b66-ab45-5a7df317499e,1760515888624000352,-1.396179,1.991272,1.459122,-0.03125,-0.578613,0.85791,1.1413700256748158,-33.281623034573805,91.78269380745775,0.6688860058784485,-0.20616260170936584,-0.1989680379629135,0.6859296560287476
5140502d-ea98-49dc-84f9-345e9630b20e,c6182466-ca39-4b66-ab45-5a7df317499e,1760515888632032352,-1.152039,2.174377,1.398087,-0.027344,-0.567871,0.859375,1.1690428194228262,-33.29574692173508,91.80306831813378,0.6687883734703064,-0.20637480914592743,-0.19892823696136475,0.6859725713729858
5140502d-ea98-49dc-84f9-345e9630b20e,c6182466-ca39-4b66-ab45-5a7df317499e,1760515888640064352,-1.211166,2.599716,1.092911,0.005371,-0.570801,0.855469,1.1899634744708638,-33.31079980466214,91.78880195057435,0.668884813785553,-0.20661209523677826,-0.19887106120586395,0.6858236789703369
5140502d-ea98-49dc-84f9-345e9630b20e,c6182466-ca39-4b66-ab45-5a7df317499e,1760515888648096352,-1.579285,2.601624,0.84877,-0.019531,-0.590332,0.869141,1.2168987969489757,-33.32780955798376,91.72929695241152,0.6692590117454529,-0.20697516202926636,-0.19870880246162415,0.6853960156440735
5140502d-ea98-49dc-84f9-345e9630b20e,c6182466-ca39-4b66-ab45-5a7df317499e,1760515888658720352,-1.152039,2.601624,0.177383,-0.023437,-0.574707,0.865723,1.2413391542937071,-33.33931189979449,91.73309416869046,0.6692593693733215,-0.20718149840831757,-0.19864214956760406,0.685352623462677
5140502d-ea98-49dc-84f9-345e9630b20e,c6182466-ca39-4b66-ab45-5a7df317499e,1760515888669344352,-0.905991,2.355576,-0.188828,-0.024902,-0.587891,0.87207,1.2592950165403387,-33.350363292563436,91.71907087441448,0.6693558096885681,-0.20737729966640472,-0.19857841730117798,0.6852176785469055
5140502d-ea98-49dc-84f9-345e9630b20e,c6182466-ca39-4b66-ab45-5a7df317499e,1760515888679968352,-0.844955,1.867294,-0.555038,-0.021484,-0.573242,0.873047,1.266708905238423,-33.354689506721385,91.67236805082688,0.6696406006813049,-0.20752763748168945,-0.19847658276557922,0.6849233508110046
5140502d-ea98-49dc-84f9-345e9630b20e,c6182466-ca39-4b66-ab45-5a7df317499e,1760515888688057352,0.25177,1.319885,-1.531601,-0.02002,-0.563965,0.87793,1.273604296213513,-33.35256833491257,91.60191303805082,0.6700770854949951,-0.20767849683761597,-0.19829587638378143,0.6845029592514038
5140502d-ea98-49dc-84f9-345e9630b20e,c6182466-ca39-4b66-ab45-5a7df317499e,1760515888696145352,0.312805,1.747131,-2.019882,-0.015137,-0.578125,0.883789,1.278254169566389,-33.3460250486092,91.52555713425063,0.6705520749092102,-0.20780031383037567,-0.19809092581272125,0.6840600371360779
5140502d-ea98-49dc-84f9-345e9630b20e,c6182466-ca39-4b66-ab45-5a7df317499e,1760515888704233352,1.23024,1.440048,-2.080917,-0.016113,-0.5625,0.869141,1.2824894429531413,-33.33825455968047,91.4669399287893,0.6709222793579102,-0.20788170397281647,-0.19791314005851746,0.6837236881256104
5140502d-ea98-49dc-84f9-345e9630b20e,c6182466-ca39-4b66-ab45-5a7df317499e,1760515888712321352,1.10817,1.073837,-2.141953,-0.032227,-0.553711,0.865723,1.284818389948675,-33.32501233799515,91.41210167542049,0.6712756752967834,-0.20791323482990265,-0.1977204978466034,0.6834229230880737
5140502d-ea98-49dc-84f9-345e9630b20e,c6182466-ca39-4b66-ab45-5a7df317499e,1760515888722895352,1.10817,0.585556,-2.508163,-0.031738,-0.563965,0.863281,1.2841456077138507,-33.31181045944272,91.36345816385615,0.6715867519378662,-0.2079162895679474,-0.19755694270133972,0.6831636428833008
5140502d-ea98-49dc-84f9-345e9630b20e,c6182466-ca39-4b66-ab45-5a7df317499e,1760515888733469352,1.10817,0.28038,-2.080917,-0.040527,-0.563965,0.859863,1.2843647947942403,-33.30270723930042,91.37282499090465,0.6715465784072876,-0.2078484743833542,-0.1975180208683014,0.6832349896430969
5140502d-ea98-49dc-84f9-345e9630b20e,c6182466-ca39-4b66-ab45-5a7df317499e,1760515888744043352,0.37384,-0.022888,-2.325058,-0.021484,-0.551758,0.847168,1.2766242010029092,-33.294600575108795,91.34591754360906,0.671707272529602,-0.20780149102210999,-0.1974659413099289,0.6831064224243164
5140502d-ea98-49dc-84f9-345e9630b20e,c6182466-ca39-4b66-ab45-5a7df317499e,1760515888754689352,-0.354767,0.038147,-2.080917,-0.029785,-0.558594,0.842773,1.2687160530483965,-33.30171820936887,91.1933438757438,0.6725906133651733,-0.2080586552619934,-0.19727815687656403,0.6822125911712646
5140502d-ea98-49dc-84f9-345e9630b20e,c6182466-ca39-4b66-ab45-5a7df317499e,1760515888765334352,-0.602722,-0.144958,-1.775742,-0.031738,-0.55957,0.852051,1.2638677331277157,-33.309018689343276,91.13310388330291,0.672928512096405,-0.20817606151103973,-0.197240948677063,0.681854248046875
5140502d-ea98-49dc-84f9-345e9630b20e,c6182466-ca39-4b66-ab45-5a7df317499e,1760515888775979352,-0.905991,-0.265121,-1.775742,-0.023926,-0.563477,0.851074,1.2559184803646946,-33.319285528628946,91.06230174547505,0.6733186841011047,-0.2083105444908142,-0.19722044467926025,0.6814337968826294
5140502d-ea98-49dc-84f9-345e9630b20e,c6182466-ca39-4b66-ab45-5a7df317499e,1760515888786657352,-1.152039,-0.999451,-1.104355,-0.039062,-0.571777,0.855957,1.2489679755858623,-33.32846499112011,91.00818697714772,0.6736129522323608,-0.2084159553050995,-0.19721782207489014,0.6811113953590393
5140502d-ea98-49dc-84f9-345e9630b20e,c6182466-ca39-4b66-ab45-5a7df317499e,1760515888797335352,-1.211166,-1.672745,-0.982285,-0.030273,-0.55127,0.857422,1.2400540991240956,-33.3353879533264,90.97509361143042,0.6737825870513916,-0.20846037566661835,-0.19725143909454346,0.6809202432632446
5140502d-ea98-49dc-84f9-345e9630b20e,c6182466-ca39-4b66-ab45-5a7df317499e,1760515888808013352,-1.028061,-1.85585,-0.738144,-0.043945,-0.565918,0.868164,1.2312706387392223,-33.3436214274097,90.97023609486808,0.6737824082374573,-0.20846465229988098,-0.19734348356723785,0.6808924078941345
5140502d-ea98-49dc-84f9-345e9630b20e,c6182466-ca39-4b66-ab45-5a7df317499e,1760515888816036352,-0.663757,-1.976013,-0.249863,-0.027832,-0.558105,0.866699,1.202217379913175,-33.35194026691948,90.85711441124916,0.6743901371955872,-0.20853552222251892,-0.19735828042030334,0.6802645325660706
5140502d-ea98-49dc-84f9-345e9630b20e,c6182466-ca39-4b66-ab45-5a7df317499e,1760515888824061352,-0.354767,-2.464294,0.177383,-0.036133,-0.558105,0.868164,1.1849475035042403,-33.34809575109623,90.86688518227008,0.6743088960647583,-0.20839369297027588,-0.19745472073554993,0.6803604960441589
5140502d-ea98-49dc-84f9-345e9630b20e,c6182466-ca39-4b66-ab45-5a7df317499e,1760515888832086352,0.007629,-2.6474,0.299454,-0.030762,-0.54541,0.861328,1.1679447951408382,-33.34405666002087,90.91537387323706,0.6739984750747681,-0.20818550884723663,-0.1976187527179718,0.6806841492652893
5140502d-ea98-49dc-84f9-345e9630b20e,c6182466-ca39-4b66-ab45-5a7df317499e,1760515888840111352,-0.051498,-3.137589,0.7267,-0.031738,-0.557617,0.862793,1.1499432326337007,-33.34162546408284,90.89067022964095,0.6741182804107666,-0.20810699462890625,-0.1976652443408966,0.680575966835022
5140502d-ea98-49dc-84f9-345e9630b20e,c6182466-ca39-4b66-ab45-5a7df317499e,1760515888850753352,0.312805,-3.684998,0.84877,-0.015625,-0.568848,0.858398,1.1245825504935767,-33.33740125316549,90.8577514159767,0.6742771863937378,-0.2079884558916092,-0.1977294534444809,0.6804361939430237
5140502d-ea98-49dc-84f9-345e9630b20e,c6182466-ca39-4b66-ab45-5a7df317499e,1760515888861395352,0.253677,-3.808975,1.398087,-0.023926,-0.556641,0.877441,1.1024091909345264,-33.327800672814,90.83192866373916,0.6744085550308228,-0.20784521102905273,-0.19775575399398804,0.6803420782089233
5140502d-ea98-49dc-84f9-345e9630b20e,c6182466-ca39-4b66-ab45-5a7df317499e,1760515888872037352,0.495911,-3.807068,1.153946,-0.018555,-0.559082,0.871094,1.0746107576674182,-33.32133328647252,90.81880093475176,0.6744495034217834,-0.20766498148441315,-0.19785694777965546,0.6803271174430847
5140502d-ea98-49dc-84f9-345e9630b20e,c6182466-ca39-4b66-ab45-5a7df317499e,1760515888882734352,0.801086,-3.074646,0.97084,-0.01416,-0.552246,0.870117,1.0460367366470291,-33.31129827334086,90.80622630123172,0.6744918823242188,-0.20745833218097687,-0.19794245064258575,0.6803232431411743
5140502d-ea98-49dc-84f9-345e9630b20e,c6182466-ca39-4b66-ab45-5a7df317499e,1760515888893431352,0.619888,-2.527237,0.97084,-0.012695,-0.551758,0.875,1.0223682075189926,-33.29762053899695,90.79351201556855,0.6745497584342957,-0.20725968480110168,-0.19797712564468384,0.6803163886070251
5140502d-ea98-49dc-84f9-345e9630b20e,c6182466-ca39-4b66-ab45-5a7df317499e,1760515888904128352,0.679016,-2.342224,0.909805,-0.001953,-0.560547,0.869629,0.9992792735603064,-33.28853894750212,90.80322988677294,0.6744676232337952,-0.20705263316631317,-0.19807639718055725,0.6804319620132446
5140502d-ea98-49dc-84f9-345e9630b20e,c6182466-ca39-4b66-ab45-5a7df317499e,1760515888912166352,0.801086,-1.914978,0.787735,0.000488,-0.559082,0.86084,0.962201048929824,-33.263760806732236,90.78295101606201,0.6745661497116089,-0.2067224085330963,-0.1981101632118225,0.6804249286651611
5140502d-ea98-49dc-84f9-345e9630b20e,c6182466-ca39-4b66-ab45-5a7df317499e,1760515888920203352,1.10817,-1.85585,0.97084,-0.012207,-0.552246,0.866211,0.9479439831042467,-33.24806650065424,90.78325375446391,0.6745664477348328,-0.20654532313346863,-0.1981009840965271,0.6804810166358948
5140502d-ea98-49dc-84f9-345e9630b20e,c6182466-ca39-4b66-ab45-5a7df317499e,1760515888928240352,0.925064,-1.672745,0.787735,0.001465,-0.551758,0.865234,0.9312045975450829,-33.23531746277181,90.81877705594225,0.6743482351303101,-0.20630979537963867,-0.19818741083145142,0.6807435750961304
5140502d-ea98-49dc-84f9-345e9630b20e,c6182466-ca39-4b66-ab45-5a7df317499e,1760515888936277352,0.925064,-1.672745,0.482559,-0.01123,-0.556641,0.854004,0.9163290356826495,-33.2256739860453,90.79314026852632,0.6744912266731262,-0.20620927214622498,-0.19817125797271729,0.6806371212005615
5140502d-ea98-49dc-84f9-345e9630b20e,c6182466-ca39-4b66-ab45-5a7df317499e,1760515888946857352,0.495911,-1.976013,0.7267,-0.010254,-0.540039,0.882324,0.9022444360716348,-33.21223888710124,90.76217550109057,0.6746736764907837,-0.2061004638671875,-0.19811829924583435,0.6805046200752258
5140502d-ea98-49dc-84f9-345e9630b20e,c6182466-ca39-4b66-ab45-5a7df317499e,1760515888957437352,0.801086,-1.548767,0.7267,-0.004395,-0.543945,0.866699,0.890093721341204,-33.1946574334827,90.73077226394867,0.6748691201210022,-0.20597955584526062,-0.19802850484848022,0.6803735494613647
5140502d-ea98-49dc-84f9-345e9630b20e,c6182466-ca39-4b66-ab45-5a7df317499e,1760515888968017352,1.23024,-1.184464,0.360489,-0.005859,-0.551758,0.863769,0.8742026561830872,-33.17905533590355,90.68059710659946,0.675166130065918,-0.20588041841983795,-0.19793890416622162,0.6801349520683289
5140502d-ea98-49dc-84f9-345e9630b20e,c6182466-ca39-4b66-ab45-5a7df317499e,1760515888976016352,1.10817,-0.879288,0.482559,-0.001953,-0.541992,0.863769,0.8634803434451244,-33.16377582906299,90.62404399663855,0.6755092740058899,-0.2058248072862625,-0.19780942797660828,0.6798486709594727
5140502d-ea98-49dc-84f9-345e9630b20e,c6182466-ca39-4b66-ab45-5a7df317499e,1760515888984015352,1.23024,-0.936508,0.238419,-0.020996,-0.544922,0.867187,0.8572133725880736,-33.14343204469645,90.56068586021347,0.6759089827537537,-0.20577751100063324,-0.19761139154434204,0.6795232892036438
5140502d-ea98-49dc-84f9-345e9630b20e,c6182466-ca39-4b66-ab45-5a7df317499e,1760515888992014352,1.167297,-0.694275,0.238419,-0.016602,-0.541504,0.873047,0.8538032769163609,-33.131398807889084,90.53163361209631,0.6760959029197693,-0.20573671162128448,-0.19750767946243286,0.6793798208236694
5140502d-ea98-49dc-84f9-345e9630b20e,c6182466-ca39-4b66-ab45-5a7df317499e,1760515889000013352,1.35231,-0.207901,-0.249863,-0.016602,-0.555664,0.868164,0.8502640066748562,-33.112806542031024,90.54925480004042,0.6760170459747314,-0.20557615160942078,-0.1974494606256485,0.6795238256454468
5140502d-ea98-49dc-84f9-345e9630b20e,c6182466-ca39-4b66-ab45-5a7df317499e,1760515889010682352,1.718521,0.28038,-0.432968,0.000488,-0.542969,0.871582,0.848149131435141,-33.089856951414596,90.54105769072186,0.6761011481285095,-0.20544293522834778,-0.19731055200099945,0.6795207858085632
5140502d-ea98-49dc-84f9-345e9630b20e,c6182466-ca39-4b66-ab45-5a7df317499e,1760515889021351352,1.472473,0.282288,-0.982285,-0.008789,-0.541504,0.867187,0.8422893942450153,-33.07281385913215,90.52735904407241,0.676201343536377,-0.20533165335655212,-0.19721907377243042,0.6794812679290771
5140502d-ea98-49dc-84f9-345e9630b20e,c6182466-ca39-4b66-ab45-5a7df317499e,1760515889032020352,1.10817,0.711441,-0.677109,-0.012207,-0.53125,0.864258,0.8473616357208764,-33.049028553176974,90.52217511570032,0.6762813329696655,-0.20523089170455933,-0.1970382034778595,0.6794846057891846
5140502d-ea98-49dc-84f9-345e9630b20e,c6182466-ca39-4b66-ab45-5a7df317499e,1760515889042692352,1.045227,0.526428,-0.921249,-0.021484,-0.554199,0.872559,0.850214888147554,-33.035512489310186,90.4618930973962,0.6766666173934937,-0.20527197420597076,-0.19683291018009186,0.6791480183601379
5140502d-ea98-49dc-84f9-345e9630b20e,c6182466-ca39-4b66-ab45-5a7df317499e,1760515889053364352,0.925064,0.528336,-1.104355,-0.022949,-0.544922,0.871582,0.8537534228312316,-33.0167710517697,90.37298152457508,0.6772313714027405,-0.2053353190422058,-0.1965411901473999,0.6786502599716187
5140502d-ea98-49dc-84f9-345e9630b20e,c6182466-ca39-4b66-ab45-5a7df317499e,1760515889064036352,1.167297,0.770569,-1.28746,-0.016113,-0.541504,0.855469,0.8537918352845925,-33.00235355311397,90.27101877133784,0.6778596043586731,-0.2054254412651062,-0.19627249240875244,0.6780732870101929
5140502d-ea98-49dc-84f9-345e9630b20e,c6182466-ca39-4b66-ab45-5a7df317499e,1760515889074687352,1.10817,0.890732,-1.226425,-0.027344,-0.54541,0.851074,0.8615382575782281,-32.982108889107685,90.15830256510911,0.6785740256309509,-0.2055448293685913,-0.19590425491333008,0.6774287819862366
5140502d-ea98-49dc-84f9-345e9630b20e,c6182466-ca39-4b66-ab45-5a7df317499e,1760515889085338352,0.436783,0.711441,-1.348495,-0.024414,-0.550293,0.847656,0.8628538192956511,-32.9789427144779,90.10129489952207,0.6789186000823975,-0.20563137531280518,-0.19577538967132568,0.6770943999290466
5140502d-ea98-49dc-84f9-345e9630b20e,c6182466-ca39-4b66-ab45-5a7df317499e,1760515889095989352,0.312805,0.587463,-1.104355,-0.035645,-0.527832,0.85498,0.8719444032619624,-32.97059027306502,90.10298351536692,0.6789383888244629,-0.20563292503356934,-0.19567498564720154,0.6771031618118286
5140502d-ea98-49dc-84f9-345e9630b20e,c6182466-ca39-4b66-ab45-5a7df317499e,1760515889104002352,-0.051498,0.646591,-1.104355,-0.036133,-0.549805,0.851562,0.8805058889084092,-32.96638091209013,90.16723853674802,0.6785804033279419,-0.2055489867925644,-0.1957145631313324,0.6774759292602539
5140502d-ea98-49dc-84f9-345e9630b20e,c6182466-ca39-4b66-ab45-5a7df317499e,1760515889112016352,-0.663757,0.892639,-0.555038,-0.016113,-0.553223,0.845703,0.8885721944242554,-32.96666280326199,90.16319613560908,0.6786175966262817,-0.20560522377490997,-0.19566121697425842,0.6774370670318604
5140502d-ea98-49dc-84f9-345e9630b20e,c6182466-ca39-4b66-ab45-5a7df317499e,1760515889120030352,-1.028061,1.073837,-0.616074,-0.032715,-0.537598,0.849609,0.8966540153833382,-32.96086040459601,90.1462276442821,0.6787415742874146,-0.20564775168895721,-0.19554844498634338,0.6773325204849243
5140502d-ea98-49dc-84f9-345e9630b20e,c6182466-ca39-4b66-ab45-5a7df317499e,1760515889128044352,-1.579285,0.648499,-0.371933,-0.025391,-0.561035,0.84082,0.9113960562511356,-32.971988434420915,90.09918640341394,0.6790257692337036,-0.20588074624538422,-0.19544270634651184,0.6770073175430298
5140502d-ea98-49dc-84f9-345e9630b20e,c6182466-ca39-4b66-ab45-5a7df317499e,1760515889138731352,-1.945496,0.465393,-0.249863,-0.027344,-0.541504,0.85498,0.9249458583947172,-32.98178700822482,90.05077561203429,0.6793181300163269,-0.20610113441944122,-0.19533352553844452,0.6766783595085144
5140502d-ea98-49dc-84f9-345e9630b20e,c6182466-ca39-4b66-ab45-5a7df317499e,1760515889149418352,-2.370834,0.28038,0.055313,-0.024414,-0.545898,0.846191,0.934365136141368,-32.99716854083934,90.00252326253009,0.6795928478240967,-0.20632974803447723,-0.19528208673000336,0.6763476133346558
5140502d-ea98-49dc-84f9-345e9630b20e,c6182466-ca39-4b66-ab45-5a7df317499e,1760515889160105352,-2.799988,-0.205994,-0.005722,-0.038086,-0.552246,0.85791,0.9459660944286039,-33.013848919539925,89.95640801314708,0.6798563003540039,-0.20657524466514587,-0.19522909820079803,0.6760231256484985
5140502d-ea98-49dc-84f9-345e9630b20e,c6182466-ca39-4b66-ab45-5a7df317499e,1760515889168086352,-3.410339,-0.694275,0.360489,-0.023926,-0.545898,0.847656,0.9586415474507014,-33.0689409458227,89.93714108230472,0.6798975467681885,-0.20700810849666595,-0.1954456865787506,0.6757866144180298
5140502d-ea98-49dc-84f9-345e9630b20e,c6182466-ca39-4b66-ab45-5a7df317499e,1760515889176067352,-3.652573,-0.936508,0.665665,-0.027344,-0.557129,0.851074,0.9626627160645763,-33.10055966804567,89.9030105389196,0.6800516247749329,-0.20727674663066864,-0.19554749131202698,0.6755197048187256
5140502d-ea98-49dc-84f9-345e9630b20e,c6182466-ca39-4b66-ab45-5a7df317499e,1760515889184048352,-3.835678,-1.245499,0.665665,-0.035156,-0.560547,0.853027,0.966659660507306,-33.13637397702435,89.87529789980347,0.6801605224609375,-0.20755913853645325,-0.1956857591867447,0.6752831935882568
5140502d-ea98-49dc-84f9-345e9630b20e,c6182466-ca39-4b66-ab45-5a7df317499e,1760515889192029352,-4.081726,-1.365662,1.214981,-0.03125,-0.559082,0.837402,0.9688558248390513,-33.17430983920032,89.91487343920514,0.6798660755157471,-0.20772844552993774,-0.19596914947032928,0.6754454374313354
5140502d-ea98-49dc-84f9-345e9630b20e,c6182466-ca39-4b66-ab45-5a7df317499e,1760515889202688352,-4.323959,-1.913071,1.459122,-0.031738,-0.557617,0.845215,0.9734907661914978,-33.21610673107068,89.93795262262319,0.6796663403511047,-0.2079629749059677,-0.19623114168643951,0.6754981875419617
5140502d-ea98-49dc-84f9-345e9630b20e,c6182466-ca39-4b66-ab45-5a7df317499e,1760515889213347352,-4.629135,-2.222061,1.642227,-0.04541,-0.568359,0.849121,0.976908634179945,-33.261344086941435,89.92297756530031,0.6796828508377075,-0.20827575027942657,-0.19645166397094727,0.6753210425376892
5140502d-ea98-49dc-84f9-345e9630b20e,c6182466-ca39-4b66-ab45-5a7df317499e,1760515889224006352,-4.932404,-2.586365,1.642227,-0.030762,-0.567383,0.839844,0.9733855879807455,-33.31037440120607,89.90333449708035,0.6797083020210266,-0.20857805013656616,-0.1967272162437439,0.6751218438148499
5140502d-ea98-49dc-84f9-345e9630b20e,c6182466-ca39-4b66-ab45-5a7df317499e,1760515889234669352,-5.729675,-2.891541,1.764297,-0.029297,-0.569336,0.848144,0.9707459534386079,-33.36450076701765,89.89238387322554,0.6796751022338867,-0.20890076458454132,-0.19704340398311615,0.6749631762504578
5140502d-ea98-49dc-84f9-345e9630b20e,c6182466-ca39-4b66-ab45-5a7df317499e,1760515889245333352,-5.849838,-3.198624,1.947403,-0.029297,-0.566406,0.837891,0.9611101728267532,-33.420101027853214,89.88684749483387,0.6795952320098877,-0.20918165147304535,-0.19741958379745483,0.6748466491699219
5140502d-ea98-49dc-84f9-345e9630b20e,c6182466-ca39-4b66-ab45-5a7df317499e,1760515889255997352,-6.092072,-3.623962,2.191544,-0.025879,-0.56543,0.844238,0.9535274948897628,-33.47536156649466,89.87861285256434,0.6795351505279541,-0.20947730541229248,-0.19777655601501465,0.6747108101844788
5140502d-ea98-49dc-84f9-345e9630b20e,c6182466-ca39-4b66-ab45-5a7df317499e,1760515889266668352,-6.33812,-3.808975,1.947403,-0.022949,-0.58252,0.855957,0.92079764942733,-33.59477206174922,89.90739391955218,0.6791020631790161,-0.20993925631046295,-0.19872982800006866,0.6747230291366577
5140502d-ea98-49dc-84f9-345e9630b20e,c6182466-ca39-4b66-ab45-5a7df317499e,1760515889277338352,-6.277084,-4.297256,2.069473,-0.026855,-0.578125,0.863769,0.897366291122604,-33.65234140892339,89.93781733832083,0.6787821054458618,-0.21008794009685516,-0.19926504790782928,0.6748407483100891
5140502d-ea98-49dc-84f9-345e9630b20e,c6182466-ca39-4b66-ab45-5a7df317499e,1760515889288008352,-6.643295,-4.663467,2.435684,-0.01416,-0.583984,0.866699,0.8699822242552362,-33.7109782464105,89.92708990287215,0.6786953806877136,-0.21029111742973328,-0.1997544765472412,0.6747198104858398
5140502d-ea98-49dc-84f9-345e9630b20e,c6182466-ca39-4b66-ab45-5a7df317499e,1760515889296007352,-6.034851,-4.78363,2.130508,-0.018066,-0.604492,0.852539,0.8373231071080222,-33.774192038324685,89.9623220814015,0.6783204078674316,-0.21040992438793182,-0.20038646459579468,0.6748723387718201
5140502d-ea98-49dc-84f9-345e9630b20e,c6182466-ca39-4b66-ab45-5a7df317499e,1760515889304009352,-5.483627,-4.720688,2.069473,-0.006836,-0.599609,0.865234,0.8064806689480513,-33.83099886807973,89.98862498104847,0.678011953830719,-0.21051697432994843,-0.20095334947109222,0.6749802231788635
5140502d-ea98-49dc-84f9-345e9630b20e,c6182466-ca39-4b66-ab45-5a7df317499e,1760515889312011352,-5.241394,-4.722595,1.947403,0.000977,-0.594727,0.866211,0.77205846848647,-33.878677146503414,89.98803075864615,0.6778712868690491,-0.2105962038040161,-0.20143792033195496,0.6749522089958191
5140502d-ea98-49dc-84f9-345e9630b20e,c6182466-ca39-4b66-ab45-5a7df317499e,1760515889320013352,-4.386902,-4.600525,1.886368,-0.015625,-0.593262,0.871582,0.7412142679127576,-33.925780035025866,89.95888383902357,0.6779057383537292,-0.21074339747428894,-0.20184531807899475,0.6747498512268066
5140502d-ea98-49dc-84f9-345e9630b20e,c6182466-ca39-4b66-ab45-5a7df317499e,1760515889330663352,-3.77655,-4.478455,1.642227,-0.009277,-0.583984,0.87207,0.7068628476143027,-33.96126998113029,89.91455000382119,0.67804354429245,-0.2108285129070282,-0.2021767497062683,0.674485445022583
5140502d-ea98-49dc-84f9-345e9630b20e,c6182466-ca39-4b66-ab45-5a7df317499e,1760515889341313352,-2.922058,-4.53949,1.214981,0.004395,-0.583984,0.864746,0.6671549892049848,-33.99275957443938,89.88443932697602,0.6780949234962463,-0.21083368360996246,-0.20254231989383698,0.6743223667144775
5140502d-ea98-49dc-84f9-345e9630b20e,c6182466-ca39-4b66-ab45-5a7df317499e,1760515889351963352,-2.67601,-4.297256,1.398087,-0.000977,-0.577637,0.868164,0.629084065265107,-34.01687382966057,89.85158544920994,0.6781781315803528,-0.21081003546714783,-0.20284955203533173,0.6741536259651184
5140502d-ea98-49dc-84f9-345e9630b20e,c6182466-ca39-4b66-ab45-5a7df317499e,1760515889360001352,-2.187729,-4.232407,1.337051,0.004883,-0.592773,0.871582,0.5508921108263642,-34.05843530927897,89.82080408811422,0.6781466603279114,-0.21064987778663635,-0.20350095629692078,0.6740388870239258
5140502d-ea98-49dc-84f9-345e9630b20e,c6182466-ca39-4b66-ab45-5a7df317499e,1760515889368042352,-1.88446,-4.234314,1.276016,0.015625,-0.583984,0.864746,0.5172104472771426,-34.07542426678736,89.80875110142115,0.6781274080276489,-0.2105734497308731,-0.20377834141254425,0.6739982962608337
5140502d-ea98-49dc-84f9-345e9630b20e,c6182466-ca39-4b66-ab45-5a7df317499e,1760515889376083352,-1.457214,-3.929138,0.7267,-0.000488,-0.581055,0.855957,0.4807747483896662,-34.09081077185865,89.74402317710293,0.6784157156944275,-0.2105652242898941,-0.20396578311920166,0.6736538410186768
5140502d-ea98-49dc-84f9-345e9630b20e,c6182466-ca39-4b66-ab45-5a7df317499e,1760515889384124352,-1.274109,-3.623962,0.787735,0.001953,-0.577637,0.858398,0.44888979497834447,-34.1001989423234,89.72416500108504,0.6784588694572449,-0.2104686051607132,-0.20417340099811554,0.6735776662826538
5140502d-ea98-49dc-84f9-345e9630b20e,c6182466-ca39-4b66-ab45-5a7df317499e,1760515889394739352,-0.844955,-3.198624,0.299454,0.025879,-0.572266,0.864258,0.41220486730384537,-34.10788484453969,89.70971191361923,0.6784646511077881,-0.21032413840293884,-0.20440934598445892,0.6735454201698303
5140502d-ea98-49dc-84f9-345e9630b20e,c6182466-ca39-4b66-ab45-5a7df317499e,1760515889405354352,-0.663757,-2.76947,0.238419,-0.002441,-0.578613,0.851562,0.383103731132874,-34.11556985110894,89.68687734874167,0.678533136844635,-0.2102392613887787,-0.2045850157737732,0.6734495759010315
5140502d-ea98-49dc-84f9-345e9630b20e,c6182466-ca39-4b66-ab45-5a7df317499e,1760515889415969352,-0.843048,-2.464294,0.299454,-0.000488,-0.57666,0.863281,0.3604928266721304,-34.11883353805538,89.64973430536655,0.6787051558494568,-0.2101920247077942,-0.2046699970960617,0.6732650995254517
5140502d-ea98-49dc-84f9-345e9630b20e,c6182466-ca39-4b66-ab45-5a7df317499e,1760515889426670352,0.068665,-2.281189,-0.127792,0.009277,-0.592285,0.860352,0.3318578523936166,-34.123712663231984,89.58516156972019,0.6790245175361633,-0.2101680338382721,-0.2047499120235443,0.6729261875152588
5140502d-ea98-49dc-84f9-345e9630b20e,c6182466-ca39-4b66-ab45-5a7df317499e,1760515889437373352,0.497818,-2.222061,-0.555038,0.011719,-0.58252,0.858398,0.30176259763745394,-34.121176819700025,89.54988886409737,0.6791824102401733,-0.21003936231136322,-0.20484867691993713,0.6727769374847412
5140502d-ea98-49dc-84f9-345e9630b20e,c6182466-ca39-4b66-ab45-5a7df317499e,1760515889448076352,0.679016,-1.670837,-0.799179,0.005859,-0.585938,0.859863,0.27359915536024665,-34.118257064194175,89.50904586981925,0.6793770790100098,-0.20992977917194366,-0.204923614859581,0.6725917458534241
5140502d-ea98-49dc-84f9-345e9630b20e,c6182466-ca39-4b66-ab45-5a7df317499e,1760515889458727352,1.045227,-1.487732,-0.799179,0.000488,-0.577148,0.84375,0.2248761768981526,-34.098042281313234,89.45949417717178,0.6796172261238098,-0.20961274206638336,-0.205003023147583,0.6724238395690918
5140502d-ea98-49dc-84f9-345e9630b20e,c6182466-ca39-4b66-ab45-5a7df317499e,1760515889469381352,0.984192,-1.304626,-0.982285,-0.004883,-0.571777,0.843262,0.2065224693639682,-34.088646771545555,89.47519349290678,0.6795092225074768,-0.2094212770462036,-0.2050853669643402,0.6725675463676453
5140502d-ea98-49dc-84f9-345e9630b20e,c6182466-ca39-4b66-ab45-5a7df317499e,1760515889480035352,1.047134,-1.424789,-1.16539,-0.005859,-0.577148,0.842285,0.18711227831578725,-34.07976972005508,89.42287672132298,0.6797975301742554,-0.2093483805656433,-0.20505274832248688,0.6723088622093201
