section id,recording id,timestamp [ns],gyro x [deg/s],gyro y [deg/s],gyro z [deg/s],acceleration x [g],acceleration y [g],acceleration z [g],roll [deg],pitch [deg],yaw [deg],quaternion w,quaternion x,quaternion y,quaternion z
4e895505-d92d-4909-8278-4280a7505d5a,6d292281-5c1f-4061-9898-5217a28356f0,1760433713021885831,1.113892,-0.18692,0.188828,0.01709,-0.600098,0.819336,-0.8856372251742058,-36.17577870130504,-149.01186683624326,0.2562417984008789,-0.09001724421977997,0.2972208559513092,-0.9153666496276855
4e895505-d92d-4909-8278-4280a7505d5a,6d292281-5c1f-4061-9898-5217a28356f0,1760433713032541831,0.62561,-0.18692,0.368118,-0.004883,-0.594238,0.821289,-0.8762002639013056,-36.172622759391835,-149.00004452170515,0.25631386041641235,-0.08996560424566269,0.29720744490623474,-0.9153558611869812
4e895505-d92d-4909-8278-4280a7505d5a,6d292281-5c1f-4061-9898-5217a28356f0,1760433713043197831,0.686646,-0.431061,0.616074,0.005859,-0.617188,0.80957,-0.8743634884099015,-36.17923513011183,-149.0146363401452,0.25618815422058105,-0.08992760628461838,0.2972759008407593,-0.9153725504875183
4e895505-d92d-4909-8278-4280a7505d5a,6d292281-5c1f-4061-9898-5217a28356f0,1760433713051558831,0.259399,0.05722,0.738144,0.008789,-0.603516,0.815918,-0.8730886629371521,-36.18271996992442,-149.03793242302967,0.255996435880661,-0.08986462652683258,0.29732489585876465,-0.9154164791107178
4e895505-d92d-4909-8278-4280a7505d5a,6d292281-5c1f-4061-9898-5217a28356f0,1760433713059917831,0.074387,0.299454,0.249863,0.009277,-0.596191,0.821777,-0.8720174620020433,-36.18424305605886,-149.003399501172,0.2562685012817383,-0.08994901180267334,0.2973123788833618,-0.9153361320495605
4e895505-d92d-4909-8278-4280a7505d5a,6d292281-5c1f-4061-9898-5217a28356f0,1760433713068276831,0.259399,0.179291,0.616074,0.013672,-0.597656,0.825684,-0.8739061112923833,-36.1831556708711,-148.9756529930436,0.25649574398994446,-0.09003368765115738,0.29727765917778015,-0.9152754545211792
4e895505-d92d-4909-8278-4280a7505d5a,6d292281-5c1f-4061-9898-5217a28356f0,1760433713076635831,-0.108719,0.421524,0.368118,0.01709,-0.605469,0.81543,-0.8724910837817769,-36.18590657925874,-148.96106235137358,0.256606787443161,-0.09006629139184952,0.2972913682460785,-0.9152366518974304
4e895505-d92d-4909-8278-4280a7505d5a,6d292281-5c1f-4061-9898-5217a28356f0,1760433713085939831,0.013351,-0.310898,0.062943,0.007813,-0.605469,0.821289,-0.8681226524722225,-36.18420524655152,-148.93972817847396,0.2567669749259949,-0.09008300304412842,0.2972707748413086,-0.9151967763900757
4e895505-d92d-4909-8278-4280a7505d5a,6d292281-5c1f-4061-9898-5217a28356f0,1760433713095246831,-0.717163,-0.125885,-0.120163,0.017578,-0.61084,0.821777,-0.870733764276994,-36.18546065969274,-148.92049628696262,0.2569265067577362,-0.09015651047229767,0.2972598373889923,-0.9151483178138733
4e895505-d92d-4909-8278-4280a7505d5a,6d292281-5c1f-4061-9898-5217a28356f0,1760433713104553831,-0.597,-0.555038,-0.177383,0.026367,-0.609863,0.816406,-0.8780865742808778,-36.18908460236244,-148.90214265552686,0.2570897340774536,-0.09027081727981567,0.2972578704357147,-0.915091872215271
4e895505-d92d-4909-8278-4280a7505d5a,6d292281-5c1f-4061-9898-5217a28356f0,1760433713113860831,-1.022339,-0.370026,-0.238419,0.014648,-0.609375,0.830078,-0.8778338582020313,-36.18967164420899,-148.90738531295838,0.25704681873321533,-0.09025648981332779,0.29726725816726685,-0.9151023030281067
4e895505-d92d-4909-8278-4280a7505d5a,6d292281-5c1f-4061-9898-5217a28356f0,1760433713123167831,-1.268387,-0.494003,-0.425339,0.008789,-0.601562,0.816895,-0.876229446111474,-36.188662707701624,-148.95194585011072,0.2566874623298645,-0.09012585878372192,0.297297865152359,-0.9152060747146606
4e895505-d92d-4909-8278-4280a7505d5a,6d292281-5c1f-4061-9898-5217a28356f0,1760433713132762831,-1.451492,-0.494003,-0.482559,0.007324,-0.60791,0.832519,-0.8831690627875146,-36.198795054478076,-148.97093724888205,0.25654706358909607,-0.09015429019927979,0.2973783016204834,-0.9152165055274963
4e895505-d92d-4909-8278-4280a7505d5a,6d292281-5c1f-4061-9898-5217a28356f0,1760433713142357831,-1.38855,-0.614166,-0.238419,-0.001953,-0.624512,0.816895,-0.8834672858819665,-36.21787822761596,-148.9894134250863,0.2563876211643219,-0.09015066176652908,0.29754480719566345,-0.9152073860168457
4e895505-d92d-4909-8278-4280a7505d5a,6d292281-5c1f-4061-9898-5217a28356f0,1760433713151952831,-1.451492,-0.555038,-0.120163,-0.006348,-0.609375,0.810547,-0.8851367469706604,-36.234528818610926,-149.01361543056436,0.2561876177787781,-0.09013770520687103,0.29769328236579895,-0.9152163863182068
4e895505-d92d-4909-8278-4280a7505d5a,6d292281-5c1f-4061-9898-5217a28356f0,1760433713161547831,-1.693726,-0.431061,-0.177383,-0.00293,-0.600586,0.816406,-0.8852243747009664,-36.24653626773188,-149.10642289331741,0.25543859601020813,-0.08992356061935425,0.29786205291748047,-0.9153918623924255
4e895505-d92d-4909-8278-4280a7505d5a,6d292281-5c1f-4061-9898-5217a28356f0,1760433713171142831,-2.122879,-0.734329,-0.120163,0.004395,-0.60791,0.82373,-0.8888142757401467,-36.26118049356833,-149.20539703062187,0.25464749336242676,-0.08972683548927307,0.298048734664917,-0.9155710339546204
4e895505-d92d-4909-8278-4280a7505d5a,6d292281-5c1f-4061-9898-5217a28356f0,1760433713180746831,-1.878738,-0.555038,0.310898,0.003418,-0.612305,0.817383,-0.8959613648970985,-36.29887529671661,-149.40582296917898,0.2530396580696106,-0.08934421837329865,0.29849115014076233,-0.9159100651741028
4e895505-d92d-4909-8278-4280a7505d5a,6d292281-5c1f-4061-9898-5217a28356f0,1760433713190351831,-1.876831,-0.736237,0.310898,0.002441,-0.601562,0.819824,-0.8956841015738254,-36.31997932929958,-149.54051784676557,0.25194841623306274,-0.08903662115335464,0.29876554012298584,-0.9161513447761536
4e895505-d92d-4909-8278-4280a7505d5a,6d292281-5c1f-4061-9898-5217a28356f0,1760433713199956831,-2.182007,-0.431061,0.616074,0.003906,-0.604492,0.822266,-0.8911076644996009,-36.33962842204797,-149.63389116817783,0.2511771023273468,-0.08879881352186203,0.2990053594112396,-0.9163079857826233
4e895505-d92d-4909-8278-4280a7505d5a,6d292281-5c1f-4061-9898-5217a28356f0,1760433713209561831,-1.815796,-0.614166,0.616074,0.011719,-0.608398,0.82959,-0.891007167854456,-36.358074331283525,-149.70695848472187,0.2505805492401123,-0.08864691853523254,0.299209862947464,-0.916419267654419
4e895505-d92d-4909-8278-4280a7505d5a,6d292281-5c1f-4061-9898-5217a28356f0,1760433713219166831,-2.059937,-0.797272,0.982285,0.010742,-0.609863,0.839355,-0.887706840139916,-36.377193589948334,-149.75192297723194,0.25019991397857666,-0.08854407072067261,0.29940494894981384,-0.9164695143699646
4e895505-d92d-4909-8278-4280a7505d5a,6d292281-5c1f-4061-9898-5217a28356f0,1760433713228766831,-1.51062,-0.736237,1.039505,0.013184,-0.613281,0.82959,-0.8854735494828152,-36.395633231340994,-149.84502507305243,0.24943746626377106,-0.08832231163978577,0.2996293604373932,-0.9166253805160522
4e895505-d92d-4909-8278-4280a7505d5a,6d292281-5c1f-4061-9898-5217a28356f0,1760433713238366831,-1.327515,-0.247955,0.921249,0.01709,-0.612793,0.841797,-0.8864296882477924,-36.40602220459628,-149.9300905748446,0.24875274300575256,-0.08812963217496872,0.29977598786354065,-0.9167820811271667
4e895505-d92d-4909-8278-4280a7505d5a,6d292281-5c1f-4061-9898-5217a28356f0,1760433713247966831,-0.654221,-0.555038,0.551224,0.016113,-0.611328,0.830566,-0.8861919448169354,-36.41115719487004,-150.0004653393348,0.24818573892116547,-0.08795452117919922,0.2998717129230499,-0.9169212579727173
4e895505-d92d-4909-8278-4280a7505d5a,6d292281-5c1f-4061-9898-5217a28356f0,1760433713257566831,-0.108719,-0.371933,0.368118,0.022461,-0.625,0.849121,-0.888364870796977,-36.41102788775007,-150.09460238274687,0.24743817746639252,-0.08772526681423187,0.2999381422996521,-0.9171234965324402
4e895505-d92d-4909-8278-4280a7505d5a,6d292281-5c1f-4061-9898-5217a28356f0,1760433713267166831,-0.045776,-0.553131,0.551224,0.030273,-0.625,0.830078,-0.8965382504510288,-36.41320487637156,-150.22019553842978,0.24645286798477173,-0.08746650815010071,0.3000339865684509,-0.9173821210861206
4e895505-d92d-4909-8278-4280a7505d5a,6d292281-5c1f-4061-9898-5217a28356f0,1760433713276776831,0.257492,-0.555038,0.188828,0.019531,-0.625,0.827637,-0.9107239148965919,-36.422008973561795,-150.49358183239923,0.244295135140419,-0.08688248693943024,0.30028218030929565,-0.9179334044456482
4e895505-d92d-4909-8278-4280a7505d5a,6d292281-5c1f-4061-9898-5217a28356f0,1760433713286386831,0.564575,-0.125885,-0.120163,0.023438,-0.604004,0.82373,-0.9137065959131868,-36.42288801804616,-150.59692367629003,0.24347448348999023,-0.08663737773895264,0.30036112666130066,-0.9181487560272217
4e895505-d92d-4909-8278-4280a7505d5a,6d292281-5c1f-4061-9898-5217a28356f0,1760433713295996831,0.745773,-0.555038,-0.177383,0.012695,-0.605957,0.82666,-0.911645937356538,-36.423412851042094,-150.68286111014055,0.24278011918067932,-0.08639667183160782,0.30043458938598633,-0.9183312654495239
4e895505-d92d-4909-8278-4280a7505d5a,6d292281-5c1f-4061-9898-5217a28356f0,1760433713305606831,0.686646,0.05722,-0.360489,0.032715,-0.60791,0.813477,-0.9177968697911082,-36.42610286874659,-150.77697682469787,0.2420402467250824,-0.08620475977659225,0.3005140423774719,-0.918518602848053
4e895505-d92d-4909-8278-4280a7505d5a,6d292281-5c1f-4061-9898-5217a28356f0,1760433713315216831,0.869751,0.179291,0.368118,0.020508,-0.605957,0.824707,-0.9212538307168704,-36.42857743021989,-150.87686443246344,0.2412470281124115,-0.08597559481859207,0.30060166120529175,-0.9187200665473938
4e895505-d92d-4909-8278-4280a7505d5a,6d292281-5c1f-4061-9898-5217a28356f0,1760433713324821831,0.501633,-0.005722,0.062943,0.016602,-0.599609,0.818848,-0.9217865945248856,-36.428087679345964,-150.98203142509345,0.24040547013282776,-0.08570294827222824,0.3006753921508789,-0.9189419746398926
4e895505-d92d-4909-8278-4280a7505d5a,6d292281-5c1f-4061-9898-5217a28356f0,1760433713334428831,0.320435,0.362396,0.249863,0.008789,-0.614258,0.830566,-0.9215460062107788,-36.42762336231851,-151.0966568454843,0.23948578536510468,-0.08539925515651703,0.3007577359676361,-0.9191834330558777
4e895505-d92d-4909-8278-4280a7505d5a,6d292281-5c1f-4061-9898-5217a28356f0,1760433713344035831,0.564575,0.362396,0.188828,0.016602,-0.616211,0.82959,-0.926503600645675,-36.42973945198775,-151.22122435042823,0.23849815130233765,-0.08511634916067123,0.3008570671081543,-0.9194339513778687
4e895505-d92d-4909-8278-4280a7505d5a,6d292281-5c1f-4061-9898-5217a28356f0,1760433713353642831,0.62561,0.362396,0.310898,0.025879,-0.619141,0.824219,-0.9294839825312422,-36.43208175694725,-151.3328251952075,0.23760899901390076,-0.08485198020935059,0.3009524643421173,-0.9196573495864868
4e895505-d92d-4909-8278-4280a7505d5a,6d292281-5c1f-4061-9898-5217a28356f0,1760433713363249831,0.257492,0.421524,-0.177383,0.024414,-0.628418,0.820801,-0.9341385492024582,-36.43684352567998,-151.42783436184183,0.23685576021671295,-0.08464943617582321,0.30105137825012207,-0.9198378920555115
4e895505-d92d-4909-8278-4280a7505d5a,6d292281-5c1f-4061-9898-5217a28356f0,1760433713372849831,0.38147,0.667572,-0.238419,0.01416,-0.609863,0.819336,-0.9362396978393684,-36.43980201883756,-151.5148807161045,0.23616068065166473,-0.08444355428218842,0.30113503336906433,-0.9200081825256348
4e895505-d92d-4909-8278-4280a7505d5a,6d292281-5c1f-4061-9898-5217a28356f0,1760433713382449831,0.627518,0.421524,0.005722,0.01123,-0.614746,0.819336,-0.9397876358332472,-36.44367160062573,-151.61494096127254,0.23536424338817596,-0.08421684801578522,0.3012324869632721,-0.9202011227607727
4e895505-d92d-4909-8278-4280a7505d5a,6d292281-5c1f-4061-9898-5217a28356f0,1760433713392049831,0.320435,0.362396,-0.120163,0.002441,-0.618652,0.818848,-0.9356855473908368,-36.445862409204956,-151.72905458941278,0.23443566262722015,-0.08388826996088028,0.3013422191143036,-0.9204322099685669
4e895505-d92d-4909-8278-4280a7505d5a,6d292281-5c1f-4061-9898-5217a28356f0,1760433713401649831,0.684738,-0.005722,-0.120163,0.009277,-0.618164,0.82666,-0.9350947796420206,-36.4480536002342,-151.85028500356725,0.23345890641212463,-0.08356904238462448,0.30144962668418884,-0.9206743240356445
4e895505-d92d-4909-8278-4280a7505d5a,6d292281-5c1f-4061-9898-5217a28356f0,1760433713411249831,0.627518,-0.066757,0.005722,0.004883,-0.608887,0.831055,-0.9294069003332376,-36.446159019687414,-151.974849131075,0.2324441373348236,-0.08319184184074402,0.30153658986091614,-0.9209367036819458
4e895505-d92d-4909-8278-4280a7505d5a,6d292281-5c1f-4061-9898-5217a28356f0,1760433713420840831,0.747681,-0.003815,0.005722,0.014648,-0.608398,0.828613,-0.9301497343484806,-36.44196350196655,-152.16820328992594,0.2308943122625351,-0.08268062770366669,0.3016412556171417,-0.9213382601737976
4e895505-d92d-4909-8278-4280a7505d5a,6d292281-5c1f-4061-9898-5217a28356f0,1760433713430434831,0.930786,-0.30899,-0.120163,0.005859,-0.618164,0.820312,-0.9276453876071773,-36.44373471894373,-152.28229496250967,0.22996923327445984,-0.08236359059810638,0.30174270272254944,-0.9215648174285889
4e895505-d92d-4909-8278-4280a7505d5a,6d292281-5c1f-4061-9898-5217a28356f0,1760433713440028831,1.173019,-0.066757,-0.120163,0.01416,-0.60498,0.820312,-0.9289563420630831,-36.44414027972955,-152.37424558102012,0.22923289239406586,-0.08213277906179428,0.3018093407154083,-0.9217470288276672
4e895505-d92d-4909-8278-4280a7505d5a,6d292281-5c1f-4061-9898-5217a28356f0,1760433713449622831,1.113892,0.362396,0.127792,0.006836,-0.599121,0.812988,-0.929146515519267,-36.44131379925769,-152.468578976668,0.22847618162631989,-0.08188032358884811,0.3018537163734436,-0.9219427704811096
4e895505-d92d-4909-8278-4280a7505d5a,6d292281-5c1f-4061-9898-5217a28356f0,1760433713459216831,0.989914,0.665665,-0.177383,0.01416,-0.606934,0.821777,-0.9305089839416503,-36.439550587059884,-152.57276793342237,0.22764244675636292,-0.08161336928606033,0.3019111156463623,-0.922153890132904
4e895505-d92d-4909-8278-4280a7505d5a,6d292281-5c1f-4061-9898-5217a28356f0,1760433713469875831,0.442505,1.033783,0.188828,0.009277,-0.594238,0.810547,-0.9288716909828593,-36.437697108455346,-152.6766114270302,0.22680345177650452,-0.08132297545671463,0.30197325348854065,-0.9223659038543701
4e895505-d92d-4909-8278-4280a7505d5a,6d292281-5c1f-4061-9898-5217a28356f0,1760433713480531831,0.015259,1.033783,0.249863,0.01709,-0.613281,0.826172,-0.9307359822854957,-36.4389592445907,-152.784295042311,0.2259407788515091,-0.0810566172003746,0.30205604434013367,-0.9225739240646362
4e895505-d92d-4909-8278-4280a7505d5a,6d292281-5c1f-4061-9898-5217a28356f0,1760433713491187831,-0.349045,0.909805,-0.303268,0.001465,-0.614258,0.822754,-0.92631677790723,-36.43977944141693,-152.84761847028338,0.2254188060760498,-0.08085568249225616,0.3021160960197449,-0.9226995706558228
4e895505-d92d-4909-8278-4280a7505d5a,6d292281-5c1f-4061-9898-5217a28356f0,1760433713499204831,-0.350952,0.545502,0.368118,0.00293,-0.597168,0.820801,-0.9221028817606585,-36.43707077409913,-153.04266170125643,0.22383840382099152,-0.08030221611261368,0.30223965644836426,-0.9230921268463135
4e895505-d92d-4909-8278-4280a7505d5a,6d292281-5c1f-4061-9898-5217a28356f0,1760433713507224831,-0.780106,0.299454,0.249863,0.011719,-0.601562,0.810547,-0.9174397828142712,-36.439950241253996,-153.10028061635742,0.22336028516292572,-0.08011815696954727,0.30231231451034546,-0.9232001304626465
4e895505-d92d-4909-8278-4280a7505d5a,6d292281-5c1f-4061-9898-5217a28356f0,1760433713515244831,-0.961304,0.05722,0.249863,0.015137,-0.608398,0.81543,-0.917998813197079,-36.442225341270856,-153.18058927540335,0.2227134108543396,-0.07991509884595871,0.3023856580257416,-0.9233499765396118
4e895505-d92d-4909-8278-4280a7505d5a,6d292281-5c1f-4061-9898-5217a28356f0,1760433713523264831,-1.083374,0.240326,0.005722,0.007324,-0.613281,0.832031,-0.9167861117109131,-36.44226751636736,-153.2981490525276,0.22176280617713928,-0.07959514856338501,0.3024701774120331,-0.923578679561615
4e895505-d92d-4909-8278-4280a7505d5a,6d292281-5c1f-4061-9898-5217a28356f0,1760433713533922831,-0.963211,-0.246048,0.188828,0.008789,-0.619141,0.820312,-0.913086348308177,-36.44302094208803,-153.4231677914143,0.22074486315250397,-0.079236701130867,0.30257004499435425,-0.9238206148147583
4e895505-d92d-4909-8278-4280a7505d5a,6d292281-5c1f-4061-9898-5217a28356f0,1760433713544580831,-1.38855,-0.18692,0.249863,0.023926,-0.630371,0.832519,-0.9143259463135943,-36.452852214169866,-153.56078198172136,0.2196330428123474,-0.07890170067548752,0.30274197459220886,-0.9240579605102539
4e895505-d92d-4909-8278-4280a7505d5a,6d292281-5c1f-4061-9898-5217a28356f0,1760433713555238831,-0.900269,0.301361,-0.055313,-0.00293,-0.617676,0.827637,-0.9082625309320852,-36.45600297145288,-153.67777575168674,0.21867172420024872,-0.07854954898357391,0.3028593957424164,-0.9242774248123169
4e895505-d92d-4909-8278-4280a7505d5a,6d292281-5c1f-4061-9898-5217a28356f0,1760433713565897831,-0.597,0.60463,-0.055313,0.013184,-0.616699,0.835449,-0.9082150952860139,-36.455529859962546,-153.78944018423988,0.21777108311653137,-0.0782531201839447,0.3029320538043976,-0.9244914054870605
4e895505-d92d-4909-8278-4280a7505d5a,6d292281-5c1f-4061-9898-5217a28356f0,1760433713576555831,-0.656128,0.667572,-0.238419,0.014648,-0.634277,0.828125,-0.9066418093228068,-36.461366701939276,-153.8908462949673,0.21694549918174744,-0.07798312604427338,0.30305132269859314,-0.9246692061424255
4e895505-d92d-4909-8278-4280a7505d5a,6d292281-5c1f-4061-9898-5217a28356f0,1760433713587213831,-0.228882,0.362396,-0.120163,0.005859,-0.618652,0.839844,-0.9016442423525661,-36.46312247986227,-153.96258057907392,0.2163524329662323,-0.07775631546974182,0.30312371253967285,-0.9248034954071045
4e895505-d92d-4909-8278-4280a7505d5a,6d292281-5c1f-4061-9898-5217a28356f0,1760433713595232831,-0.228882,0.484467,0.005722,-0.001953,-0.621094,0.822754,-0.8921247444082175,-36.469100780810486,-154.11089314333006,0.21512682735919952,-0.07729804515838623,0.3032902777194977,-0.9250732064247131
4e895505-d92d-4909-8278-4280a7505d5a,6d292281-5c1f-4061-9898-5217a28356f0,1760433713603254831,0.259399,0.301361,0.005722,0.000488,-0.624512,0.832519,-0.8877033506188522,-36.4724421112165,-154.1988228926562,0.21440339088439941,-0.07703571021556854,0.30338478088378906,-0.9252320528030396
4e895505-d92d-4909-8278-4280a7505d5a,6d292281-5c1f-4061-9898-5217a28356f0,1760433713611276831,0.259399,0.05722,0.062943,0.008789,-0.600586,0.829102,-0.8846103274577438,-36.47016823401407,-154.30333851757908,0.21355247497558594,-0.07672984898090363,0.3034422993659973,-0.9254353642463684
4e895505-d92d-4909-8278-4280a7505d5a,6d292281-5c1f-4061-9898-5217a28356f0,1760433713619298831,0.684738,0.177383,0.494003,0.012207,-0.611328,0.822754,-0.8814361044572815,-36.470245769174284,-154.415288004033,0.21263982355594635,-0.07640786468982697,0.30352362990379333,-0.9256454706192017
4e895505-d92d-4909-8278-4280a7505d5a,6d292281-5c1f-4061-9898-5217a28356f0,1760433713629920831,1.174927,0.545502,0.310898,0.007324,-0.604004,0.82959,-0.8799739700813459,-36.47202091513343,-154.52118958966693,0.21177946031093597,-0.07611873000860214,0.3036111891269684,-0.9258377552032471
4e895505-d92d-4909-8278-4280a7505d5a,6d292281-5c1f-4061-9898-5217a28356f0,1760433713640542831,1.296997,-0.003815,0.188828,0.002441,-0.614258,0.826172,-0.8765669660926684,-36.47482426634142,-154.6146235750438,0.21101394295692444,-0.07584865391254425,0.30370208621025085,-0.926004946231842
4e895505-d92d-4909-8278-4280a7505d5a,6d292281-5c1f-4061-9898-5217a28356f0,1760433713651164831,1.419067,-0.003815,0.005722,0.002441,-0.60791,0.82666,-0.8694020302412278,-36.46087005060483,-154.70971128858721,0.21023397147655487,-0.07551367580890656,0.3036651611328125,-0.9262217879295349
4e895505-d92d-4909-8278-4280a7505d5a,6d292281-5c1f-4061-9898-5217a28356f0,1760433713661852831,1.48201,0.116348,-0.120163,0.007812,-0.61084,0.820801,-0.8615674896180316,-36.44837520402132,-154.80781595297208,0.2094268500804901,-0.07516800612211227,0.3036428987979889,-0.9264400005340576
4e895505-d92d-4909-8278-4280a7505d5a,6d292281-5c1f-4061-9898-5217a28356f0,1760433713672539831,1.173019,0.482559,0.062943,-0.00293,-0.620605,0.813477,-0.8533982139119971,-36.44742038201637,-154.9111197089913,0.2085704356431961,-0.07482647895812988,0.3037176728248596,-0.9266363382339478
4e895505-d92d-4909-8278-4280a7505d5a,6d292281-5c1f-4061-9898-5217a28356f0,1760433713683226831,1.173019,0.299454,0.188828,0.008301,-0.602051,0.822266,-0.8528303555185641,-36.4470308593088,-155.00671595962268,0.20779603719711304,-0.07456780225038528,0.30377787351608276,-0.9268113970756531
4e895505-d92d-4909-8278-4280a7505d5a,6d292281-5c1f-4061-9898-5217a28356f0,1760433713693872831,1.113892,-0.18692,0.062943,0.001465,-0.601074,0.82959,-0.844253720399756,-36.436130647860914,-155.17577970290324,0.2064114212989807,-0.07403093576431274,0.30381470918655396,-0.9271517395973206
4e895505-d92d-4909-8278-4280a7505d5a,6d292281-5c1f-4061-9898-5217a28356f0,1760433713704520831,1.173019,-0.677109,0.494003,0.006836,-0.61084,0.831543,-0.8438041477484721,-36.42428921796171,-155.26464646957146,0.20569737255573273,-0.07377088069915771,0.30377691984176636,-0.927343487739563
4e895505-d92d-4909-8278-4280a7505d5a,6d292281-5c1f-4061-9898-5217a28356f0,1760433713715168831,1.113892,-0.797272,0.616074,0.011719,-0.614746,0.824707,-0.8493012916107083,-36.41403892535294,-155.35018430420803,0.20502501726150513,-0.07357066124677658,0.3037390112876892,-0.9275206923484802
4e895505-d92d-4909-8278-4280a7505d5a,6d292281-5c1f-4061-9898-5217a28356f0,1760433713723287831,1.113892,-0.736237,0.677109,0.019531,-0.616211,0.822266,-0.8564823227400892,-36.4048605708431,-155.4345711906927,0.20436571538448334,-0.07338908314704895,0.3037059009075165,-0.9276914596557617
4e895505-d92d-4909-8278-4280a7505d5a,6d292281-5c1f-4061-9898-5217a28356f0,1760433713731404831,0.989914,-0.555038,0.368118,0.008789,-0.606934,0.816895,-0.8574110477835091,-36.394297199975234,-155.5188386922067,0.20369139313697815,-0.07315489649772644,0.30367252230644226,-0.9278691411018372
4e895505-d92d-4909-8278-4280a7505d5a,6d292281-5c1f-4061-9898-5217a28356f0,1760433713739521831,0.930786,0.05722,0.127792,0.010254,-0.600098,0.82666,-0.859391054671096,-36.39022818617556,-155.61343631374146,0.2029326856136322,-0.07291316986083984,0.30369630455970764,-0.9280466437339783
4e895505-d92d-4909-8278-4280a7505d5a,6d292281-5c1f-4061-9898-5217a28356f0,1760433713747638831,0.930786,0.118256,0.005722,0.011719,-0.617676,0.82373,-0.8588964817419462,-36.39012649141794,-155.70289418112057,0.20220687985420227,-0.07267189025878906,0.30375319719314575,-0.9282053112983704
4e895505-d92d-4909-8278-4280a7505d5a,6d292281-5c1f-4061-9898-5217a28356f0,1760433713758155831,0.989914,0.177383,-0.238419,0.01416,-0.605469,0.838379,-0.8591373663125215,-36.38861894986465,-155.78759869746617,0.2015221118927002,-0.07244669646024704,0.30379417538642883,-0.9283584356307983
4e895505-d92d-4909-8278-4280a7505d5a,6d292281-5c1f-4061-9898-5217a28356f0,1760433713768672831,1.356125,0.116348,-0.360489,0.006836,-0.606445,0.82959,-0.8528527524197358,-36.38645336846485,-155.85487825342105,0.20096145570278168,-0.07221368700265884,0.3038301169872284,-0.9284863471984863
4e895505-d92d-4909-8278-4280a7505d5a,6d292281-5c1f-4061-9898-5217a28356f0,1760433713779189831,1.113892,0.240326,-0.425339,0.010254,-0.597168,0.837402,-0.8510310585379616,-36.36849825057006,-155.924477567358,0.20040176808834076,-0.07198368012905121,0.30373144149780273,-0.9286574721336365
4e895505-d92d-4909-8278-4280a7505d5a,6d292281-5c1f-4061-9898-5217a28356f0,1760433713789846831,1.356125,-0.066757,-0.177383,-0.006836,-0.608887,0.825195,-0.8460716275199197,-36.3545139865894,-156.0737799841711,0.1991855502128601,-0.07152392715215683,0.3037201166152954,-0.9289582967758179
4e895505-d92d-4909-8278-4280a7505d5a,6d292281-5c1f-4061-9898-5217a28356f0,1760433713800504831,1.724243,-0.736237,-0.055313,0.001953,-0.600586,0.831543,-0.8482739316817092,-36.33749500112332,-156.15387679879237,0.19855056703090668,-0.07130065560340881,0.3036280870437622,-0.9291414618492126
4e895505-d92d-4909-8278-4280a7505d5a,6d292281-5c1f-4061-9898-5217a28356f0,1760433713811162831,2.212524,-0.18692,0.062943,0.006348,-0.60498,0.830078,-0.8448018265746803,-36.31598099549462,-156.2231574151934,0.19799035787582397,-0.07105259597301483,0.30350250005722046,-0.9293209910392761
4e895505-d92d-4909-8278-4280a7505d5a,6d292281-5c1f-4061-9898-5217a28356f0,1760433713819176831,2.029419,-0.247955,-0.120163,0.020508,-0.59082,0.830078,-0.8493410241808949,-36.29323074474546,-156.2973995890746,0.19741158187389374,-0.07085447013378143,0.3033559322357178,-0.9295070767402649
4e895505-d92d-4909-8278-4280a7505d5a,6d292281-5c1f-4061-9898-5217a28356f0,1760433713827191831,1.970291,0.116348,-0.177383,0.004883,-0.610352,0.821289,-0.8476500190224213,-36.2761588897944,-156.3723456072315,0.1968076080083847,-0.07061368227005005,0.3032664656639099,-0.9296826720237732
4e895505-d92d-4909-8278-4280a7505d5a,6d292281-5c1f-4061-9898-5217a28356f0,1760433713835206831,2.029419,-0.247955,-0.238419,0.017578,-0.609863,0.830566,-0.8480427009028645,-36.25745699286479,-156.45896355352187,0.19611509144306183,-0.0703563392162323,0.3031671643257141,-0.9298809170722961
4e895505-d92d-4909-8278-4280a7505d5a,6d292281-5c1f-4061-9898-5217a28356f0,1760433713843221831,1.785278,0.240326,0.062943,0.006348,-0.602051,0.828613,-0.8483438227154837,-36.23812888811364,-156.53602308027808,0.19550003111362457,-0.07012268155813217,0.30305686593055725,-0.9300640225410461
4e895505-d92d-4909-8278-4280a7505d5a,6d292281-5c1f-4061-9898-5217a28356f0,1760433713851293831,1.846313,0.05722,-0.120163,0.010254,-0.609375,0.830566,-0.8456911821223636,-36.223074252215945,-156.59828880200993,0.1949950009584427,-0.06991144269704819,0.3029771149158478,-0.9302119016647339
4e895505-d92d-4909-8278-4280a7505d5a,6d292281-5c1f-4061-9898-5217a28356f0,1760433713859365831,1.480103,-0.003815,0.188828,0.020508,-0.608887,0.830078,-0.8488962701045727,-36.20899882560787,-156.69781889421776,0.19420231878757477,-0.06965098530054092,0.3029178977012634,-0.9304165244102478
4e895505-d92d-4909-8278-4280a7505d5a,6d292281-5c1f-4061-9898-5217a28356f0,1760433713867437831,0.989914,-0.005722,0.310898,0.005371,-0.594727,0.811523,-0.8439023861732508,-36.19769573814881,-156.77157319706936,0.19359572231769562,-0.06939679384231567,0.3028792142868042,-0.9305745363235474
4e895505-d92d-4909-8278-4280a7505d5a,6d292281-5c1f-4061-9898-5217a28356f0,1760433713886085831,0.928879,-0.066757,0.616074,0.002441,-0.594238,0.813477,-0.8392623878120025,-36.193967607255274,-156.86638514406408,0.19281524419784546,-0.06910235434770584,0.302914023399353,-0.9307471513748169
4e895505-d92d-4909-8278-4280a7505d5a,6d292281-5c1f-4061-9898-5217a28356f0,1760433713896660831,0.320435,-0.18692,0.494003,0.010742,-0.606934,0.813965,-0.8390160948560315,-36.19641579638875,-156.93464979246653,0.19225892424583435,-0.06892391294240952,0.30297547578811646,-0.930855393409729
4e895505-d92d-4909-8278-4280a7505d5a,6d292281-5c1f-4061-9898-5217a28356f0,1760433713907235831,-0.045776,-0.247955,0.616074,0.013184,-0.596191,0.810059,-0.8407200565891428,-36.19516147877378,-157.02170052960994,0.19155684113502502,-0.06870552897453308,0.30301469564437866,-0.9310035109519958
4e895505-d92d-4909-8278-4280a7505d5a,6d292281-5c1f-4061-9898-5217a28356f0,1760433713917888831,-1.022339,-0.431061,0.677109,0.006836,-0.59375,0.811035,-0.8440001986976924,-36.196499709989524,-157.1192799407343,0.19077201187610626,-0.06847629696130753,0.3030785024166107,-0.9311608076095581
4e895505-d92d-4909-8278-4280a7505d5a,6d292281-5c1f-4061-9898-5217a28356f0,1760433713928539831,-1.630783,-0.371933,0.616074,0.012207,-0.598145,0.825195,-0.8419565040573495,-36.19559988639385,-157.22441047582325,0.18991267681121826,-0.068180151283741,0.30313727259635925,-0.9313390254974365
4e895505-d92d-4909-8278-4280a7505d5a,6d292281-5c1f-4061-9898-5217a28356f0,1760433713939190831,-1.754761,0.05722,0.551224,0.028809,-0.603516,0.821289,-0.8442800690805379,-36.210919426417604,-157.32001082065665,0.18913452327251434,-0.06797080487012863,0.30331486463546753,-0.9314548373222351
4e895505-d92d-4909-8278-4280a7505d5a,6d292281-5c1f-4061-9898-5217a28356f0,1760433713947190831,-1.693726,0.05722,0.188828,0.020996,-0.599121,0.832519,-0.8493810909332314,-36.23664445492138,-157.42508347068772,0.18828175961971283,-0.06777538359165192,0.3035780191421509,-0.9315561056137085
4e895505-d92d-4909-8278-4280a7505d5a,6d292281-5c1f-4061-9898-5217a28356f0,1760433713955193831,-1.630783,0.421524,-0.238419,0.015137,-0.59375,0.841309,-0.8508640010176015,-36.242323902607495,-157.47106910472678,0.18790917098522186,-0.06767469644546509,0.303648978471756,-0.9316155314445496
4e895505-d92d-4909-8278-4280a7505d5a,6d292281-5c1f-4061-9898-5217a28356f0,1760433713963196831,-1.38855,0.240326,-0.360489,0.016602,-0.603027,0.824707,-0.8524324611968598,-36.25364040960141,-157.5310573724857,0.1874202936887741,-0.0675465315580368,0.3037738800048828,-0.9316826462745667
4e895505-d92d-4909-8278-4280a7505d5a,6d292281-5c1f-4061-9898-5217a28356f0,1760433713971199831,-1.38855,0.545502,-0.84877,0.021973,-0.610352,0.834473,-0.8570857284727631,-36.26446952090569,-157.60865932054378,0.18679660558700562,-0.06739586591720581,0.3039001226425171,-0.9317775964736938
4e895505-d92d-4909-8278-4280a7505d5a,6d292281-5c1f-4061-9898-5217a28356f0,1760433713981877831,-0.900269,0.240326,-1.096725,0.004883,-0.602539,0.833984,-0.8629067021782967,-36.26885293640677,-157.70060159129318,0.18606233596801758,-0.06720628589391708,0.3039803206920624,-0.9319120645523071
4e895505-d92d-4909-8278-4280a7505d5a,6d292281-5c1f-4061-9898-5217a28356f0,1760433713992555831,-0.597,0.299454,-1.096725,0.019531,-0.606934,0.820312,-0.862950524057538,-36.27253237449787,-157.79428305412608,0.1852988302707672,-0.06696391105651855,0.3040650486946106,-0.9320539832115173
4e895505-d92d-4909-8278-4280a7505d5a,6d292281-5c1f-4061-9898-5217a28356f0,1760433714003233831,-0.289917,0.179291,-0.7267,0.008789,-0.597168,0.843262,-0.8621447986387842,-36.26958985768133,-157.86962720332497,0.18468530476093292,-0.06675291061401367,0.3040865659713745,-0.9321832060813904
4e895505-d92d-4909-8278-4280a7505d5a,6d292281-5c1f-4061-9898-5217a28356f0,1760433714013909831,-0.534058,-0.125885,-0.543594,0.005371,-0.605469,0.832031,-0.8588198628571447,-36.26656115380735,-157.95669642638182,0.18396951258182526,-0.066490039229393,0.3041178584098816,-0.9323333501815796
4e895505-d92d-4909-8278-4280a7505d5a,6d292281-5c1f-4061-9898-5217a28356f0,1760433714024584831,-0.228882,-0.247955,-0.238419,0.006348,-0.619141,0.835938,-0.8544130855670423,-36.266761106978294,-158.0653123194108,0.18307390809059143,-0.06616618484258652,0.30418938398361206,-0.9325094223022461
4e895505-d92d-4909-8278-4280a7505d5a,6d292281-5c1f-4061-9898-5217a28356f0,1760433714035259831,0.013351,-0.371933,0.062943,-0.007812,-0.60791,0.834961,-0.8449182842458398,-36.26365490329413,-158.14816748027593,0.18237580358982086,-0.06586411595344543,0.30422693490982056,-0.932655394077301
4e895505-d92d-4909-8278-4280a7505d5a,6d292281-5c1f-4061-9898-5217a28356f0,1760433714045921831,-0.47493,-0.429153,0.677109,0.001953,-0.614258,0.821777,-0.8355786574817622,-36.2622869097945,-158.2330575760906,0.18166065216064453,-0.06556057929992676,0.30427929759025574,-0.9327992796897888
4e895505-d92d-4909-8278-4280a7505d5a,6d292281-5c1f-4061-9898-5217a28356f0,1760433714056585831,-0.411987,-0.492096,0.738144,0.003418,-0.608887,0.821289,-0.8289659796171345,-36.26439749109819,-158.27852907864153,0.1812719702720642,-0.0653892531991005,0.3043329417705536,-0.9328694343566895
4e895505-d92d-4909-8278-4280a7505d5a,6d292281-5c1f-4061-9898-5217a28356f0,1760433714067249831,-0.165939,-0.555038,0.982285,0.008301,-0.601562,0.832519,-0.8211007653567394,-36.264214133387526,-158.3409322548481,0.18074311316013336,-0.06515918672084808,0.304379403591156,-0.9329730272293091
4e895505-d92d-4909-8278-4280a7505d5a,6d292281-5c1f-4061-9898-5217a28356f0,1760433714075284831,-0.411987,-0.736237,1.714706,0.01709,-0.594238,0.824219,-0.818854005258982,-36.26756587492198,-158.34759654638225,0.18068136274814606,-0.06512834131717682,0.3044140338897705,-0.9329758882522583
4e895505-d92d-4909-8278-4280a7505d5a,6d292281-5c1f-4061-9898-5217a28356f0,1760433714083321831,-0.656128,-1.163483,1.527786,0.013672,-0.609863,0.828125,-0.8178037450013801,-36.27342669634483,-158.3706152361903,0.18048851191997528,-0.06506764888763428,0.3044765293598175,-0.9329970479011536
4e895505-d92d-4909-8278-4280a7505d5a,6d292281-5c1f-4061-9898-5217a28356f0,1760433714091358831,-0.963211,-1.28746,1.592636,0.000488,-0.60498,0.837891,-0.8106227686110179,-36.28000249202843,-158.41990935524683,0.1800650954246521,-0.06488827615976334,0.3045693635940552,-0.9330610632896423
4e895505-d92d-4909-8278-4280a7505d5a,6d292281-5c1f-4061-9898-5217a28356f0,1760433714099395831,-0.839233,-1.224518,1.527786,0.019531,-0.61377,0.828125,-0.8095037910923785,-36.29095066342474,-158.4651038384287,0.1796891689300537,-0.06477577984333038,0.30468589067459106,-0.9331033825874329
4e895505-d92d-4909-8278-4280a7505d5a,6d292281-5c1f-4061-9898-5217a28356f0,1760433714110010831,-1.327515,-0.797272,1.775742,0.012695,-0.597168,0.82959,-0.81125657493882,-36.30071951839926,-158.50143149806513,0.17939361929893494,-0.06470838189125061,0.30478328466415405,-0.9331331253051758
4e895505-d92d-4909-8278-4280a7505d5a,6d292281-5c1f-4061-9898-5217a28356f0,1760433714120625831,-1.38855,-0.919342,1.344681,0.025879,-0.594238,0.833496,-0.809073575626777,-36.3070789538395,-158.5148069502375,0.17927603423595428,-0.06466473639011383,0.3048460781574249,-0.9331382513046265
4e895505-d92d-4909-8278-4280a7505d5a,6d292281-5c1f-4061-9898-5217a28356f0,1760433714131240831,-0.900269,-0.675201,0.738144,0.021973,-0.605469,0.833008,-0.8152844708970133,-36.3153886662606,-158.5437217737682,0.17905336618423462,-0.06465105712413788,0.30492040514945984,-0.9331576824188232
4e895505-d92d-4909-8278-4280a7505d5a,6d292281-5c1f-4061-9898-5217a28356f0,1760433714141887831,-0.778198,-0.797272,0.551224,0.010254,-0.603516,0.827148,-0.8186070271542847,-36.32200272272714,-158.6434671600366,0.17824693024158478,-0.06442271173000336,0.3050253093242645,-0.9332935810089111
4e895505-d92d-4909-8278-4280a7505d5a,6d292281-5c1f-4061-9898-5217a28356f0,1760433714152533831,-1.022339,-0.675201,0.494003,0.016602,-0.599609,0.818359,-0.8238436535845582,-36.31876427420353,-158.70435890655037,0.177766352891922,-0.06429837644100189,0.30502498149871826,-0.9333938956260681
4e895505-d92d-4909-8278-4280a7505d5a,6d292281-5c1f-4061-9898-5217a28356f0,1760433714163179831,-1.022339,-0.30899,0.432968,0.019043,-0.610352,0.819824,-0.828573299140934,-36.32604638505404,-158.7766221380172,0.17718707025051117,-0.06415551155805588,0.30511751770973206,-0.9334836602210999
4e895505-d92d-4909-8278-4280a7505d5a,6d292281-5c1f-4061-9898-5217a28356f0,1760433714171222831,-1.815796,-0.919342,0.494003,0.026855,-0.600098,0.824707,-0.8374461021284959,-36.34057741209755,-158.84457028342513,0.1766507476568222,-0.06406868994235992,0.3052603006362915,-0.9335446357727051
4e895505-d92d-4909-8278-4280a7505d5a,6d292281-5c1f-4061-9898-5217a28356f0,1760433714179264831,-2.061844,-0.677109,0.310898,0.015137,-0.621582,0.82666,-0.8416218230263358,-36.361903725037635,-158.9093527609922,0.17612473666667938,-0.06396207213401794,0.305463969707489,-0.9335846900939941
4e895505-d92d-4909-8278-4280a7505d5a,6d292281-5c1f-4061-9898-5217a28356f0,1760433714187306831,-2.975464,-0.797272,0.799179,0.003418,-0.614746,0.82666,-0.8421014142375115,-36.38286515060601,-158.96492149868942,0.17566409707069397,-0.06384914368391037,0.30566513538360596,-0.9336134195327759
4e895505-d92d-4909-8278-4280a7505d5a,6d292281-5c1f-4061-9898-5217a28356f0,1760433714195348831,-2.731323,-0.431061,0.799179,-0.001465,-0.619629,0.818359,-0.8394775339774659,-36.4118714700693,-159.01788006601578,0.17521294951438904,-0.06372971087694168,0.30593517422676086,-0.933617889881134
4e895505-d92d-4909-8278-4280a7505d5a,6d292281-5c1f-4061-9898-5217a28356f0,1760433714205976831,-2.792358,-0.675201,0.799179,0.015137,-0.616699,0.831543,-0.8399346964234001,-36.4392213442735,-159.07692953904052,0.1747211366891861,-0.06361640244722366,0.3061903119087219,-0.9336341619491577
4e895505-d92d-4909-8278-4280a7505d5a,6d292281-5c1f-4061-9898-5217a28356f0,1760433714216604831,-2.975464,-0.431061,0.921249,0.01123,-0.632324,0.835449,-0.840700607069975,-36.469255775468476,-159.122723041958,0.1743369996547699,-0.06354478001594543,0.3064594566822052,-0.9336225986480713
4e895505-d92d-4909-8278-4280a7505d5a,6d292281-5c1f-4061-9898-5217a28356f0,1760433714227232831,-2.428055,-0.555038,1.28746,0.01709,-0.614746,0.845215,-0.8382207015767975,-36.48778225648303,-159.17521495379344,0.17389464378356934,-0.06341157853603363,0.30664339661598206,-0.933653712272644
4e895505-d92d-4909-8278-4280a7505d5a,6d292281-5c1f-4061-9898-5217a28356f0,1760433714237897831,-1.939774,-0.494003,0.982285,0.016602,-0.631348,0.84375,-0.8354733332363529,-36.52503498927401,-159.2854283124059,0.1729731261730194,-0.06314899772405624,0.3070122003555298,-0.9337215423583984
4e895505-d92d-4909-8278-4280a7505d5a,6d292281-5c1f-4061-9898-5217a28356f0,1760433714248563831,-0.963211,-0.246048,0.982285,0.027344,-0.609863,0.848144,-0.838920391701238,-36.53057366331555,-159.29872914435822,0.17287158966064453,-0.0631495863199234,0.30705949664115906,-0.9337247610092163
4e895505-d92d-4909-8278-4280a7505d5a,6d292281-5c1f-4061-9898-5217a28356f0,1760433714259229831,-0.534058,0.179291,0.8564,0.004395,-0.626465,0.835449,-0.8380165520130872,-36.53415150574466,-159.34679830620755,0.1724759340286255,-0.06301865726709366,0.3071165084838867,-0.933788001537323
4e895505-d92d-4909-8278-4280a7505d5a,6d292281-5c1f-4061-9898-5217a28356f0,1760433714269877831,0.259399,0.362396,0.249863,0.017578,-0.626465,0.826172,-0.8409538621890527,-36.53585171578003,-159.40097344714118,0.17204159498214722,-0.0628998801112175,0.3071557283401489,-0.9338632225990295
4e895505-d92d-4909-8278-4280a7505d5a,6d292281-5c1f-4061-9898-5217a28356f0,1760433714280526831,0.562668,0.299454,0.005722,0.020508,-0.632812,0.838867,-0.845881459570245,-36.537113287698794,-159.45624880754744,0.17160376906394958,-0.06279370188713074,0.3071889281272888,-0.933940052986145
4e895505-d92d-4909-8278-4280a7505d5a,6d292281-5c1f-4061-9898-5217a28356f0,1760433714291175831,1.113892,0.179291,-0.177383,0.019043,-0.613281,0.822266,-0.8509629234925824,-36.53786577539376,-159.57169226122852,0.1706761121749878,-0.06252671778202057,0.30725061893463135,-0.9341076016426086
4e895505-d92d-4909-8278-4280a7505d5a,6d292281-5c1f-4061-9898-5217a28356f0,1760433714301853831,1.296997,0.05722,-0.120163,0.027832,-0.620117,0.830078,-0.8587906322032067,-36.545400918905614,-159.75785225640095,0.16917620599269867,-0.06210213154554367,0.30740171670913696,-0.934359073638916
4e895505-d92d-4909-8278-4280a7505d5a,6d292281-5c1f-4061-9898-5217a28356f0,1760433714312533831,1.480103,-0.18692,-0.303268,0.016113,-0.633301,0.832031,-0.8656087977993571,-36.53885370767834,-159.82815130505193,0.16862399876117706,-0.06195977330207825,0.30737629532814026,-0.9344766736030579
4e895505-d92d-4909-8278-4280a7505d5a,6d292281-5c1f-4061-9898-5217a28356f0,1760433714323213831,1.296997,-0.30899,-0.84877,0.025391,-0.619629,0.835938,-0.8755198119803433,-36.53374614709478,-159.8825062360225,0.16820943355560303,-0.06188751012086868,0.30734941363334656,-0.934565007686615
4e895505-d92d-4909-8278-4280a7505d5a,6d292281-5c1f-4061-9898-5217a28356f0,1760433714331209831,0.808716,0.179291,-0.543594,0.026367,-0.614258,0.828613,-0.8832878597377918,-36.533880978937994,-159.93606160708842,0.167793408036232,-0.06180740147829056,0.3073680102825165,-0.934639036655426
4e895505-d92d-4909-8278-4280a7505d5a,6d292281-5c1f-4061-9898-5217a28356f0,1760433714339203831,0.564575,0.179291,-0.360489,0.013672,-0.617188,0.828613,-0.8853486906274468,-36.53535999146353,-159.97500702812638,0.1674806773662567,-0.06172185391187668,0.30739808082580566,-0.9346908330917358
4e895505-d92d-4909-8278-4280a7505d5a,6d292281-5c1f-4061-9898-5217a28356f0,1760433714347197831,0.322342,0.421524,-0.482559,0.016602,-0.633301,0.818359,-0.8837778595474008,-36.54092412631388,-159.9951092354757,0.1673101931810379,-0.06166300177574158,0.3074566125869751,-0.9347060322761536
4e895505-d92d-4909-8278-4280a7505d5a,6d292281-5c1f-4061-9898-5217a28356f0,1760433714355191831,0.257492,1.092911,-0.360489,0.012695,-0.610352,0.828125,-0.8811523217781,-36.54147412055718,-160.07484355412825,0.16665250062942505,-0.061428412795066833,0.3075077533721924,-0.934822142124176
4e895505-d92d-4909-8278-4280a7505d5a,6d292281-5c1f-4061-9898-5217a28356f0,1760433714365862831,0.501633,1.092911,0.062943,0.009277,-0.629395,0.834961,-0.8808218058900148,-36.543783239172804,-160.15291763087447,0.1660137176513672,-0.06121944263577461,0.30756887793540955,-0.934929370880127
4e895505-d92d-4909-8278-4280a7505d5a,6d292281-5c1f-4061-9898-5217a28356f0,1760433714376533831,0.442505,1.216888,0.310898,0.001465,-0.612305,0.831055,-0.8672064003110788,-36.54206278398964,-160.21048166165625,0.1655081957578659,-0.06095141917467117,0.30760520696640015,-0.9350245594978333
4e895505-d92d-4909-8278-4280a7505d5a,6d292281-5c1f-4061-9898-5217a28356f0,1760433714387204831,0.686646,1.522064,0.921249,0.009766,-0.612305,0.838867,-0.8573570099511851,-36.53705635171301,-160.27232027407865,0.16497918963432312,-0.06069803237915039,0.307611346244812,-0.9351325035095215
4e895505-d92d-4909-8278-4280a7505d5a,6d292281-5c1f-4061-9898-5217a28356f0,1760433714395196831,0.686646,1.522064,1.28746,0.003418,-0.615723,0.832519,-0.8005605021155996,-36.53068521393053,-160.3757504384603,0.16398516297340393,-0.0599479041993618,0.30769526958465576,-0.9353281259536743
4e895505-d92d-4909-8278-4280a7505d5a,6d292281-5c1f-4061-9898-5217a28356f0,1760433714403187831,1.356125,1.764297,1.470566,0.005859,-0.633301,0.844238,-0.7706046865181757,-36.52007699814263,-160.3898800701075,0.16379374265670776,-0.059650667011737823,0.3076588213443756,-0.9353926777839661
4e895505-d92d-4909-8278-4280a7505d5a,6d292281-5c1f-4061-9898-5217a28356f0,1760433714411178831,2.212524,2.132416,1.775742,-0.009277,-0.617188,0.834473,-0.7345541782815184,-36.50107221424969,-160.35592804200235,0.16398195922374725,-0.05942102149128914,0.3075374960899353,-0.93541419506073
4e895505-d92d-4909-8278-4280a7505d5a,6d292281-5c1f-4061-9898-5217a28356f0,1760433714419169831,2.637863,1.707077,2.080917,0.001465,-0.622559,0.84082,-0.6994173915092675,-36.473174040757755,-160.36354510282294,0.16383707523345947,-0.059074778109788895,0.3073637783527374,-0.9355186223983765
4e895505-d92d-4909-8278-4280a7505d5a,6d292281-5c1f-4061-9898-5217a28356f0,1760433714429826831,3.372192,1.94931,2.141953,-0.004883,-0.608887,0.835449,-0.6593462488970273,-36.436781577514644,-160.3788144081267,0.16362014412879944,-0.05865584313869476,0.3071315586566925,-0.9356591701507568
4e895505-d92d-4909-8278-4280a7505d5a,6d292281-5c1f-4061-9898-5217a28356f0,1760433714440483831,4.102707,2.130508,2.016068,0.007813,-0.617188,0.830566,-0.615453654470152,-36.39791816062646,-160.40094846056886,0.1633380800485611,-0.058183833956718445,0.3068878948688507,-0.9358178973197937
4e895505-d92d-4909-8278-4280a7505d5a,6d292281-5c1f-4061-9898-5217a28356f0,1760433714451140831,4.40979,2.132416,2.199173,-0.006348,-0.601562,0.821289,-0.5759087679136126,-36.35931045746202,-160.44420832965557,0.1628952920436859,-0.057691313326358795,0.306650847196579,-0.9360023736953735
4e895505-d92d-4909-8278-4280a7505d5a,6d292281-5c1f-4061-9898-5217a28356f0,1760433714459167831,4.348755,1.644135,2.080917,0.004395,-0.602051,0.810547,-0.5395310068245801,-36.32298903095687,-160.51689525173083,0.16221942007541656,-0.05714904144406319,0.3064418435096741,-0.9362218976020813
4e895505-d92d-4909-8278-4280a7505d5a,6d292281-5c1f-4061-9898-5217a28356f0,1760433714467194831,4.102707,1.642227,2.264023,-0.009766,-0.611328,0.822266,-0.5043498255240217,-36.291838101026435,-160.55035674156443,0.16186508536338806,-0.05672880634665489,0.30625349283218384,-0.9363706111907959
4e895505-d92d-4909-8278-4280a7505d5a,6d292281-5c1f-4061-9898-5217a28356f0,1760433714475221831,3.677368,1.338959,2.321243,-0.008301,-0.601074,0.818848,-0.47011922576395615,-36.26047662933864,-160.56949078002154,0.1616305410861969,-0.05635438114404678,0.3060548007488251,-0.9364988207817078
4e895505-d92d-4909-8278-4280a7505d5a,6d292281-5c1f-4061-9898-5217a28356f0,1760433714483248831,3.372192,0.972748,2.321243,-0.010742,-0.604492,0.825684,-0.4366958992517285,-36.23618350664319,-160.5758182023626,0.16149991750717163,-0.056030578911304474,0.30590638518333435,-0.9365893006324768
4e895505-d92d-4909-8278-4280a7505d5a,6d292281-5c1f-4061-9898-5217a28356f0,1760433714493898831,2.944946,0.179291,2.752304,-0.000488,-0.604492,0.820312,-0.41244659414666085,-36.21227230424836,-160.610777104027,0.16115964949131012,-0.05570586770772934,0.30576202273368835,-0.9367144703865051
4e895505-d92d-4909-8278-4280a7505d5a,6d292281-5c1f-4061-9898-5217a28356f0,1760433714504548831,2.5177,-0.247955,2.630234,-0.013672,-0.611328,0.824707,-0.3926691370095979,-36.19380758557184,-160.63582744634908,0.1609100103378296,-0.05545176938176155,0.3056509792804718,-0.9368086457252502
4e895505-d92d-4909-8278-4280a7505d5a,6d292281-5c1f-4061-9898-5217a28356f0,1760433714515198831,2.637863,-0.371933,2.809525,0.004883,-0.597656,0.834473,-0.3786307652194775,-36.16659049452885,-160.6408849732054,0.1608428806066513,-0.05528578907251358,0.30545052886009216,-0.9368953704833984
4e895505-d92d-4909-8278-4280a7505d5a,6d292281-5c1f-4061-9898-5217a28356f0,1760433714525853831,2.698898,-0.860214,2.264023,0.007813,-0.598145,0.825195,-0.36860977790637434,-36.14103714103217,-160.6604630359259,0.1606670469045639,-0.055116280913352966,0.30526500940322876,-0.9369959831237793
4e895505-d92d-4909-8278-4280a7505d5a,6d292281-5c1f-4061-9898-5217a28356f0,1760433714536511831,3.067017,-0.431061,1.832962,0.010254,-0.619629,0.839844,-0.36714405354685586,-36.11660981406124,-160.706051131475,0.16030079126358032,-0.0549490861594677,0.3050891160964966,-0.9371258616447449
4e895505-d92d-4909-8278-4280a7505d5a,6d292281-5c1f-4061-9898-5217a28356f0,1760433714547169831,3.492355,-0.005722,1.344681,0.027832,-0.609863,0.843262,-0.36533611190787874,-36.084660947137344,-160.7552958259515,0.15990684926509857,-0.05475914850831032,0.3048538267612457,-0.9372808337211609
4e895505-d92d-4909-8278-4280a7505d5a,6d292281-5c1f-4061-9898-5217a28356f0,1760433714557845831,3.30925,0.787735,0.368118,0.020508,-0.602539,0.824707,-0.36283485536178817,-36.021052595527124,-160.87693579832984,0.15893206000328064,-0.054327912628650665,0.3043946623802185,-0.9376208782196045
4e895505-d92d-4909-8278-4280a7505d5a,6d292281-5c1f-4061-9898-5217a28356f0,1760433714568520831,3.738403,1.399994,-0.543594,0.013672,-0.609863,0.837891,-0.36218639109232953,-35.9893420372328,-160.9261513223709,0.1585409790277481,-0.05414853245019913,0.3041592836380005,-0.9377738237380981
4e895505-d92d-4909-8278-4280a7505d5a,6d292281-5c1f-4061-9898-5217a28356f0,1760433714579195831,3.250122,1.644135,-1.642227,0.007813,-0.591797,0.827637,-0.3616809707410883,-35.954270886843275,-160.9760065929495,0.15814633667469025,-0.05396424978971481,0.30389636754989624,-0.9379363059997559
4e895505-d92d-4909-8278-4280a7505d5a,6d292281-5c1f-4061-9898-5217a28356f0,1760433714587180831,3.555298,1.522064,-2.801895,0.008789,-0.58252,0.828613,-0.3675672202378507,-35.917875728305795,-161.02581550820688,0.15776944160461426,-0.05383085086941719,0.30361366271972656,-0.9380989670753479
4e895505-d92d-4909-8278-4280a7505d5a,6d292281-5c1f-4061-9898-5217a28356f0,1760433714595163831,3.18718,0.421524,-2.86293,0.004395,-0.59668,0.822754,-0.37379615943161215,-35.887574601727316,-161.0928493064623,0.15724973380565643,-0.05366318300366402,0.303388386964798,-0.9382686614990234
4e895505-d92d-4909-8278-4280a7505d5a,6d292281-5c1f-4061-9898-5217a28356f0,1760433714603146831,2.820969,0.299454,-3.168106,0.001953,-0.594238,0.827637,-0.3894285944557309,-35.85438502251671,-161.19006068634187,0.15650875866413116,-0.0534890741109848,0.3031405508518219,-0.9384825825691223
4e895505-d92d-4909-8278-4280a7505d5a,6d292281-5c1f-4061-9898-5217a28356f0,1760433714611129831,3.435135,-0.371933,-3.473282,0.001465,-0.588379,0.841797,-0.4082635662358182,-35.818681400399264,-161.27794885326995,0.15585333108901978,-0.053362973034381866,0.30286335945129395,-0.9386881589889526
4e895505-d92d-4909-8278-4280a7505d5a,6d292281-5c1f-4061-9898-5217a28356f0,1760433714619189831,4.043579,-0.18692,-3.778458,-0.015625,-0.593262,0.854492,-0.4272097653894145,-35.77937282512724,-161.37695399347854,0.15510821342468262,-0.053204089403152466,0.30256155133247375,-0.9389178156852722
4e895505-d92d-4909-8278-4280a7505d5a,6d292281-5c1f-4061-9898-5217a28356f0,1760433714627249831,3.982544,0.179291,-3.904343,0.004883,-0.584961,0.839844,-0.4518503002901454,-35.736976562033846,-161.50262748143155,0.15416038036346436,-0.05301804095506668,0.3022390305995941,-0.9391881227493286
4e895505-d92d-4909-8278-4280a7505d5a,6d292281-5c1f-4061-9898-5217a28356f0,1760433714635309831,3.738403,0.850677,-4.144669,0.002441,-0.586426,0.848633,-0.47278570620811006,-35.696002532253594,-161.60289271352792,0.1534099578857422,-0.052871257066726685,0.3019213378429413,-0.9394211769104004
4e895505-d92d-4909-8278-4280a7505d5a,6d292281-5c1f-4061-9898-5217a28356f0,1760433714643369831,4.165649,0.728607,-4.571915,0.000977,-0.586426,0.852539,-0.4905951836397794,-35.652681276666705,-161.70165529867532,0.15266411006450653,-0.05270035192370415,0.3015877902507782,-0.9396591186523438
4e895505-d92d-4909-8278-4280a7505d5a,6d292281-5c1f-4061-9898-5217a28356f0,1760433714653985831,4.285812,0.97084,-4.51088,0.006348,-0.57959,0.830078,-0.5113619145624027,-35.60960876529943,-161.80316205794142,0.15190279483795166,-0.05254726484417915,0.301253080368042,-0.9398993849754333
4e895505-d92d-4909-8278-4280a7505d5a,6d292281-5c1f-4061-9898-5217a28356f0,1760433714664601831,4.165649,0.728607,-4.392624,-0.000977,-0.584961,0.843262,-0.526389189494655,-35.56465269919156,-161.91003141574902,0.1510828286409378,-0.05233138054609299,0.30091315507888794,-0.9401524662971497
4e895505-d92d-4909-8278-4280a7505d5a,6d292281-5c1f-4061-9898-5217a28356f0,1760433714675217831,3.797531,0.482559,-3.961563,0.0,-0.57959,0.831055,-0.5429264378033968,-35.52032228999274,-162.0249336449876,0.15020020306110382,-0.05210832506418228,0.30057984590530396,-0.9404128789901733
4e895505-d92d-4909-8278-4280a7505d5a,6d292281-5c1f-4061-9898-5217a28356f0,1760433714685864831,3.492355,-0.188828,-3.351212,-0.001953,-0.577637,0.815918,-0.5671520940469067,-35.452588125584946,-162.14505228170518,0.1493031084537506,-0.05190558359026909,0.30004647374153137,-0.9407371878623962
4e895505-d92d-4909-8278-4280a7505d5a,6d292281-5c1f-4061-9898-5217a28356f0,1760433714696509831,3.067017,-0.919342,-2.744675,-0.010742,-0.57373,0.817871,-0.5838433355231865,-35.42325133762213,-162.23294628552262,0.14863601326942444,-0.05177520215511322,0.2998235523700714,-0.9409210681915283
4e895505-d92d-4909-8278-4280a7505d5a,6d292281-5c1f-4061-9898-5217a28356f0,1760433714707154831,2.212524,-1.163483,-2.435684,0.009766,-0.586426,0.828613,-0.6055704710487335,-35.4021847590391,-162.28881932450793,0.14824175834655762,-0.05178075283765793,0.29964756965637207,-0.9410390257835388
4e895505-d92d-4909-8278-4280a7505d5a,6d292281-5c1f-4061-9898-5217a28356f0,1760433714717835831,1.234055,-0.860214,-1.337051,0.001953,-0.582031,0.828125,-0.6236191102088324,-35.388212021395105,-162.34579580199048,0.14782610535621643,-0.05176236107945442,0.29953518509864807,-0.9411411881446838
4e895505-d92d-4909-8278-4280a7505d5a,6d292281-5c1f-4061-9898-5217a28356f0,1760433714728517831,0.867844,-0.371933,-1.096725,0.007813,-0.59375,0.827637,-0.6352439714864213,-35.37637113462795,-162.41517306033083,0.1472909301519394,-0.05166161060333252,0.2994542121887207,-0.9412564039230347
4e895505-d92d-4909-8278-4280a7505d5a,6d292281-5c1f-4061-9898-5217a28356f0,1760433714739199831,0.747681,-0.003815,-0.91362,0.003906,-0.583008,0.832031,-0.6402160562657463,-35.37071050924596,-162.48933378020234,0.1466967612504959,-0.05150156468153,0.29943469166755676,-0.9413641691207886
4e895505-d92d-4909-8278-4280a7505d5a,6d292281-5c1f-4061-9898-5217a28356f0,1760433714749842831,1.113892,0.301361,-0.360489,0.005859,-0.594727,0.839355,-0.6316702845953357,-35.36300028364943,-162.60282943967806,0.14574474096298218,-0.0511251762509346,0.29943305253982544,-0.9415330290794373
4e895505-d92d-4909-8278-4280a7505d5a,6d292281-5c1f-4061-9898-5217a28356f0,1760433714760486831,1.235962,0.728607,0.127792,-0.008789,-0.590332,0.833496,-0.6184492651068458,-35.34900085674139,-162.63118271448081,0.14548219740390778,-0.05092506855726242,0.2993473708629608,-0.9416117668151855
4e895505-d92d-4909-8278-4280a7505d5a,6d292281-5c1f-4061-9898-5217a28356f0,1760433714771130831,1.052856,1.216888,0.062943,-0.000977,-0.593262,0.836426,-0.6050227766275749,-35.33866177969176,-162.6662677413301,0.14516249299049377,-0.05071026831865311,0.29929494857788086,-0.9416893720626831
4e895505-d92d-4909-8278-4280a7505d5a,6d292281-5c1f-4061-9898-5217a28356f0,1760433714779157831,1.541138,1.033783,0.494003,-0.016113,-0.578125,0.847656,-0.5861642378794603,-35.321975802258514,-162.6366802062895,0.14536234736442566,-0.05061185732483864,0.29916858673095703,-0.9417039752006531
4e895505-d92d-4909-8278-4280a7505d5a,6d292281-5c1f-4061-9898-5217a28356f0,1760433714787183831,1.785278,1.033783,0.551224,0.018066,-0.604492,0.849121,-0.5726332902001399,-35.30753153886001,-162.6201958946627,0.14546766877174377,-0.050525739789009094,0.2990597188472748,-0.9417269229888916
4e895505-d92d-4909-8278-4280a7505d5a,6d292281-5c1f-4061-9898-5217a28356f0,1760433714795209831,1.661301,0.60463,0.921249,0.010742,-0.575684,0.833984,-0.5590516152415645,-35.2886482338483,-162.6341132105541,0.14532463252544403,-0.05035433545708656,0.29892781376838684,-0.941800057888031
4e895505-d92d-4909-8278-4280a7505d5a,6d292281-5c1f-4061-9898-5217a28356f0,1760433714803235831,1.970291,0.787735,0.738144,0.016113,-0.586914,0.835938,-0.5542088591546865,-35.27063657025014,-162.6617453954641,0.14509135484695435,-0.050220098346471786,0.29879796504974365,-0.9418843984603882
4e895505-d92d-4909-8278-4280a7505d5a,6d292281-5c1f-4061-9898-5217a28356f0,1760433714813908831,1.968384,0.728607,0.616074,0.004883,-0.581543,0.833008,-0.5429128816444472,-35.254216157976096,-162.70244723032562,0.1447332352399826,-0.050000786781311035,0.29869502782821655,-0.9419837594032288
4e895505-d92d-4909-8278-4280a7505d5a,6d292281-5c1f-4061-9898-5217a28356f0,1760433714824581831,2.090454,0.362396,0.551224,0.014648,-0.590332,0.851562,-0.5384738463606518,-35.23539424335305,-162.75111078662377,0.1443285346031189,-0.049814365804195404,0.29856741428375244,-0.9420949816703796
4e895505-d92d-4909-8278-4280a7505d5a,6d292281-5c1f-4061-9898-5217a28356f0,1760433714835254831,2.456665,0.05722,0.368118,0.006836,-0.58252,0.845703,-0.536299125219185,-35.21220159171823,-162.7941897845429,0.14397676289081573,-0.0496554933488369,0.29839766025543213,-0.9422122240066528
4e895505-d92d-4909-8278-4280a7505d5a,6d292281-5c1f-4061-9898-5217a28356f0,1760433714845879831,2.456665,0.05722,0.127792,0.010742,-0.575684,0.847168,-0.5372720540529581,-35.1615439122502,-162.84068009142106,0.1436150074005127,-0.04948018491268158,0.2979997992515564,-0.9424025416374207
4e895505-d92d-4909-8278-4280a7505d5a,6d292281-5c1f-4061-9898-5217a28356f0,1760433714856504831,2.578735,0.423431,-0.303268,0.018555,-0.588867,0.840332,-0.538747128598538,-35.139502575363935,-162.87256271985746,0.14336442947387695,-0.04938236624002457,0.29783034324645996,-0.9424993991851807
4e895505-d92d-4909-8278-4280a7505d5a,6d292281-5c1f-4061-9898-5217a28356f0,1760433714867129831,2.149582,0.787735,-0.543594,0.021484,-0.585938,0.848144,-0.5420900302340761,-35.115808571550424,-162.93541726227457,0.14286446571350098,-0.04921754077076912,0.297658234834671,-0.9426382780075073
4e895505-d92d-4909-8278-4280a7505d5a,6d292281-5c1f-4061-9898-5217a28356f0,1760433714875141831,2.456665,1.644135,-1.703262,0.032227,-0.577148,0.84375,-0.548019758144148,-35.08999342323025,-163.00233204216195,0.14233842492103577,-0.04906107857823372,0.29746708273887634,-0.9427863359451294
4e895505-d92d-4909-8278-4280a7505d5a,6d292281-5c1f-4061-9898-5217a28356f0,1760433714883152831,2.456665,2.315521,-2.191544,0.020996,-0.589355,0.839355,-0.5489338814432899,-35.06994493600157,-163.06260811086653,0.14185184240341187,-0.04888780787587166,0.2973266839981079,-0.9429129362106323
4e895505-d92d-4909-8278-4280a7505d5a,6d292281-5c1f-4061-9898-5217a28356f0,1760433714891163831,2.332687,2.557755,-2.561569,0.022949,-0.583984,0.854492,-0.5524018931064298,-35.04222870564027,-163.15995818174466,0.14106930792331696,-0.048630308359861374,0.2971356213092804,-0.9431039094924927
4e895505-d92d-4909-8278-4280a7505d5a,6d292281-5c1f-4061-9898-5217a28356f0,1760433714899174831,2.578735,3.108978,-3.04985,0.03125,-0.583984,0.851074,-0.5562682096325461,-35.018743641260045,-163.25803692490393,0.1402801275253296,-0.04837964475154877,0.29697901010513306,-0.9432837963104248
4e895505-d92d-4909-8278-4280a7505d5a,6d292281-5c1f-4061-9898-5217a28356f0,1760433714909844831,2.882004,3.046036,-3.595352,0.012695,-0.599121,0.852539,-0.5529516451770843,-34.99412221084229,-163.3496959754182,0.13952535390853882,-0.04808541759848595,0.2968188524246216,-0.9434611797332764
4e895505-d92d-4909-8278-4280a7505d5a,6d292281-5c1f-4061-9898-5217a28356f0,1760433714920514831,3.004074,3.046036,-3.721237,0.016113,-0.588867,0.847168,-0.5517088034344375,-34.96382077197382,-163.44518405149552,0.13874630630016327,-0.047792039811611176,0.2966110408306122,-0.943655252456665
4e895505-d92d-4909-8278-4280a7505d5a,6d292281-5c1f-4061-9898-5217a28356f0,1760433714931184831,3.311157,2.986908,-3.721237,-0.001953,-0.577637,0.836914,-0.5494783907953316,-34.93061082439187,-163.53246080346761,0.1380329132080078,-0.047508563846349716,0.29637637734413147,-0.9438479542732239
4e895505-d92d-4909-8278-4280a7505d5a,6d292281-5c1f-4061-9898-5217a28356f0,1760433714939182831,3.005981,2.986908,-3.721237,0.004395,-0.570801,0.839355,-0.5397180681022183,-34.86783172471697,-163.6673556786458,0.1369173675775528,-0.04700574651360512,0.2959262728691101,-0.9441769123077393
4e895505-d92d-4909-8278-4280a7505d5a,6d292281-5c1f-4061-9898-5217a28356f0,1760433714947179831,2.763748,3.046036,-3.778458,0.0,-0.579102,0.833984,-0.5334851439153504,-34.84075268344385,-163.70585012993303,0.13659308850765228,-0.04682336002588272,0.2957262694835663,-0.9442955255508423
4e895505-d92d-4909-8278-4280a7505d5a,6d292281-5c1f-4061-9898-5217a28356f0,1760433714955176831,2.578735,2.925873,-3.656387,0.003418,-0.565918,0.839355,-0.5311761001507939,-34.81244648047202,-163.80687687269906,0.13576385378837585,-0.04651070386171341,0.29553669691085815,-0.9444901347160339
4e895505-d92d-4909-8278-4280a7505d5a,6d292281-5c1f-4061-9898-5217a28356f0,1760433714963173831,2.334595,2.986908,-3.595352,0.015625,-0.566406,0.834473,-0.5269264456814242,-34.789651064998786,-163.90755462567404,0.13493046164512634,-0.046189676970243454,0.2953943908214569,-0.9446700215339661
4e895505-d92d-4909-8278-4280a7505d5a,6d292281-5c1f-4061-9898-5217a28356f0,1760433714973849831,1.907349,3.170013,-3.351212,0.007324,-0.577637,0.841309,-0.5236615402503783,-34.76944328751076,-163.997872505227,0.13418398797512054,-0.04590671509504318,0.295267790555954,-0.9448298811912537
4e895505-d92d-4909-8278-4280a7505d5a,6d292281-5c1f-4061-9898-5217a28356f0,1760433714984525831,1.541138,2.803802,-3.04985,0.001465,-0.563965,0.840332,-0.5162933854243194,-34.75162127395368,-164.09176766725045,0.13339650630950928,-0.04558364301919937,0.2951667904853821,-0.9449887871742249
4e895505-d92d-4909-8278-4280a7505d5a,6d292281-5c1f-4061-9898-5217a28356f0,1760433714995201831,1.419067,2.437592,-2.61879,0.009277,-0.577637,0.848144,-0.5062910598205881,-34.7386779207706,-164.16816008838188,0.1327448934316635,-0.04528965801000595,0.2951018810272217,-0.9451150298118591
4e895505-d92d-4909-8278-4280a7505d5a,6d292281-5c1f-4061-9898-5217a28356f0,1760433715005846831,0.684738,3.107071,-2.496719,0.004883,-0.575684,0.825684,-0.497210340842334,-34.7305391709862,-164.22785815566206,0.1322317272424698,-0.04505179822444916,0.29506874084472656,-0.945208728313446
4e895505-d92d-4909-8278-4280a7505d5a,6d292281-5c1f-4061-9898-5217a28356f0,1760433715016492831,0.013351,3.290176,-2.374649,0.008789,-0.579102,0.849121,-0.48244624689047216,-34.72237553058414,-164.28428167660763,0.13173091411590576,-0.04477551579475403,0.2950405180454254,-0.9453005194664001
4e895505-d92d-4909-8278-4280a7505d5a,6d292281-5c1f-4061-9898-5217a28356f0,1760433715027138831,-0.106812,3.658295,-2.679825,0.003418,-0.572266,0.831543,-0.4643055614159476,-34.719251343706816,-164.33962422923216,0.13122868537902832,-0.04447987675666809,0.29505717754364014,-0.9453788995742798
4e895505-d92d-4909-8278-4280a7505d5a,6d292281-5c1f-4061-9898-5217a28356f0,1760433715035147831,-0.534058,4.207611,-2.86293,0.013672,-0.57959,0.852539,-0.4497233565811829,-34.71755175153036,-164.40753125307182,0.1306314766407013,-0.04418284818530083,0.29508620500564575,-0.9454661011695862
4e895505-d92d-4909-8278-4280a7505d5a,6d292281-5c1f-4061-9898-5217a28356f0,1760433715043156831,-0.717163,4.329681,-3.168106,0.004395,-0.578613,0.833008,-0.432767826831999,-34.719062602830114,-164.4449944496967,0.13027828931808472,-0.0439482219517231,0.2951325476169586,-0.9455108046531677
4e895505-d92d-4909-8278-4280a7505d5a,6d292281-5c1f-4061-9898-5217a28356f0,1760433715051165831,-1.327515,3.96347,-3.168106,0.007813,-0.575684,0.834473,-0.41312979762224855,-34.72794465688694,-164.43716297358813,0.13028930127620697,-0.04381614923477173,0.2952248156070709,-0.9454877376556396
4e895505-d92d-4909-8278-4280a7505d5a,6d292281-5c1f-4061-9898-5217a28356f0,1760433715059174831,-1.327515,3.108978,-3.351212,-0.007812,-0.588867,0.833496,-0.39265093477409,-34.74028767225349,-164.50242961003343,0.12969401478767395,-0.04349276050925255,0.2953747808933258,-0.9455376863479614
4e895505-d92d-4909-8278-4280a7505d5a,6d292281-5c1f-4061-9898-5217a28356f0,1760433715069848831,-1.573563,2.435684,-2.985001,-0.001465,-0.59082,0.834473,-0.38429733020173495,-34.75383202947364,-164.56054098574077,0.12918859720230103,-0.04328906536102295,0.29551801085472107,-0.9455714821815491
4e895505-d92d-4909-8278-4280a7505d5a,6d292281-5c1f-4061-9898-5217a28356f0,1760433715080522831,-2.061844,1.764297,-2.801895,-0.005371,-0.588379,0.82959,-0.37845879107346875,-34.76938660090955,-164.58844641552596,0.12893825769424438,-0.04318615794181824,0.2956635057926178,-0.945564866065979
4e895505-d92d-4909-8278-4280a7505d5a,6d292281-5c1f-4061-9898-5217a28356f0,1760433715091196831,-1.998901,0.301361,-2.313614,-0.021484,-0.592285,0.84375,-0.371294009739316,-34.78889582524145,-164.62105110923744,0.1286444365978241,-0.043064482510089874,0.2958448529243469,-0.945553719997406
4e895505-d92d-4909-8278-4280a7505d5a,6d292281-5c1f-4061-9898-5217a28356f0,1760433715099188831,-2.182007,-0.370026,-2.008438,-0.009766,-0.609375,0.864746,-0.3834265973201165,-34.82903668882273,-164.72820380292512,0.12777872383594513,-0.042932018637657166,0.29620280861854553,-0.9455650448799133
4e895505-d92d-4909-8278-4280a7505d5a,6d292281-5c1f-4061-9898-5217a28356f0,1760433715107181831,-1.451492,-0.799179,-1.585007,-0.007812,-0.600098,0.857422,-0.39554696467257255,-34.84279235954019,-164.7674459421068,0.1274818629026413,-0.042945653200149536,0.29631754755973816,-0.9455685615539551
4e895505-d92d-4909-8278-4280a7505d5a,6d292281-5c1f-4061-9898-5217a28356f0,1760433715115174831,-1.451492,-0.917435,-1.096725,-0.002441,-0.596191,0.872559,-0.4032971969476976,-34.85101295799374,-164.77608294446486,0.12742802500724792,-0.04299626126885414,0.29638001322746277,-0.9455539584159851
4e895505-d92d-4909-8278-4280a7505d5a,6d292281-5c1f-4061-9898-5217a28356f0,1760433715123167831,-0.47493,-1.04332,-1.031876,-0.007324,-0.607422,0.872559,-0.40875832931782874,-34.85148552636343,-164.8488946182644,0.12684117257595062,-0.04285351559519768,0.2964051365852356,-0.9456314444541931
4e895505-d92d-4909-8278-4280a7505d5a,6d292281-5c1f-4061-9898-5217a28356f0,1760433715133877831,0.62561,-1.041412,-0.79155,0.003418,-0.577637,0.868164,-0.42039966542092205,-34.83519956961907,-164.89209748850996,0.12651985883712769,-0.04282016307115555,0.29627397656440735,-0.9457170963287354
4e895505-d92d-4909-8278-4280a7505d5a,6d292281-5c1f-4061-9898-5217a28356f0,1760433715144587831,1.724243,-0.18692,-1.031876,0.012207,-0.597168,0.855957,-0.42829152717308266,-34.81727343030013,-164.87803452328993,0.12666192650794983,-0.042902182787656784,0.2961120009422302,-0.9457451105117798
4e895505-d92d-4909-8278-4280a7505d5a,6d292281-5c1f-4061-9898-5217a28356f0,1760433715155297831,2.820969,0.242233,-1.031876,0.012207,-0.583496,0.875488,-0.43440555845643064,-34.78703534965205,-164.8909075022431,0.12658090889453888,-0.04288657009601593,0.2958604097366333,-0.9458354115486145
4e895505-d92d-4909-8278-4280a7505d5a,6d292281-5c1f-4061-9898-5217a28356f0,1760433715165913831,3.797531,0.242233,-1.703262,-0.004395,-0.589844,0.855957,-0.4329074551888242,-34.75428407136944,-164.94348911849247,0.12615318596363068,-0.04270302504301071,0.29561126232147217,-0.9459787607192993
4e895505-d92d-4909-8278-4280a7505d5a,6d292281-5c1f-4061-9898-5217a28356f0,1760433715176530831,4.165649,-0.125885,-0.97084,-0.009277,-0.577148,0.868652,-0.4356199236349593,-34.71254084185905,-164.99086298301523,0.12578198313713074,-0.0425582081079483,0.29528117179870605,-0.9461377859115601
4e895505-d92d-4909-8278-4280a7505d5a,6d292281-5c1f-4061-9898-5217a28356f0,1760433715187147831,4.226685,-0.492096,-0.84877,0.002441,-0.569824,0.850586,-0.4390071114814344,-34.67382728110393,-165.03243785665268,0.12545932829380035,-0.04243742302060127,0.29497310519218445,-0.946282148361206
4e895505-d92d-4909-8278-4280a7505d5a,6d292281-5c1f-4061-9898-5217a28356f0,1760433715197829831,3.858566,-0.371933,-0.665665,-0.015137,-0.580566,0.855957,-0.446575274536375,-34.59280578361096,-165.15693552132993,0.12447523325681686,-0.04209306091070175,0.29434138536453247,-0.9466241002082825
4e895505-d92d-4909-8278-4280a7505d5a,6d292281-5c1f-4061-9898-5217a28356f0,1760433715208513831,3.555298,-1.285553,-0.97084,-0.008301,-0.569824,0.84668,-0.4565458558081104,-34.55786243721968,-165.22296569342808,0.12396585941314697,-0.041968733072280884,0.29406601190567017,-0.9467820525169373
4e895505-d92d-4909-8278-4280a7505d5a,6d292281-5c1f-4061-9898-5217a28356f0,1760433715219197831,3.005981,-1.102448,-0.360489,-0.002441,-0.560547,0.838867,-0.46457260827629665,-34.526559057874614,-165.24388235293594,0.12382300198078156,-0.04194820299744606,0.293806254863739,-0.9468823075294495
4e895505-d92d-4909-8278-4280a7505d5a,6d292281-5c1f-4061-9898-5217a28356f0,1760433715229860831,2.637863,-2.264023,0.188828,0.002441,-0.560059,0.842773,-0.47018008808888473,-34.49077718897983,-165.26609415126353,0.1236645057797432,-0.04189973324537277,0.2935125529766083,-0.9469962120056152
4e895505-d92d-4909-8278-4280a7505d5a,6d292281-5c1f-4061-9898-5217a28356f0,1760433715240521831,2.515793,-2.508163,0.677109,-0.013672,-0.562012,0.841797,-0.4791281752300868,-34.46491290734026,-165.2969771984888,0.12343986332416534,-0.041867271065711975,0.2933003604412079,-0.9470927119255066
4e895505-d92d-4909-8278-4280a7505d5a,6d292281-5c1f-4061-9898-5217a28356f0,1760433715251182831,2.5177,-2.872467,0.8564,0.000488,-0.579102,0.852539,-0.49159053927950375,-34.43771341324652,-165.29912618316297,0.12346216291189194,-0.041936181485652924,0.2930631637573242,-0.9471591711044312
4e895505-d92d-4909-8278-4280a7505d5a,6d292281-5c1f-4061-9898-5217a28356f0,1760433715259189831,2.698898,-2.996445,1.897812,-0.009766,-0.57373,0.863281,-0.5068175340541381,-34.37699127708665,-165.34496678005127,0.1231398805975914,-0.041880860924720764,0.29256120324134827,-0.9473593831062317
4e895505-d92d-4909-8278-4280a7505d5a,6d292281-5c1f-4061-9898-5217a28356f0,1760433715267197831,3.435135,-2.691269,2.504349,-0.012695,-0.569336,0.875977,-0.5053668311950862,-34.33526043215436,-165.37377732470298,0.12291013449430466,-0.041751474142074585,0.2922280728816986,-0.9474979043006897
4e895505-d92d-4909-8278-4280a7505d5a,6d292281-5c1f-4061-9898-5217a28356f0,1760433715275205831,4.28772,-2.567291,2.99263,0.0,-0.549316,0.870117,-0.5018587800875921,-34.28681597438066,-165.40080632125654,0.12269176542758942,-0.041602738201618195,0.29184088110923767,-0.9476522207260132
4e895505-d92d-4909-8278-4280a7505d5a,6d292281-5c1f-4061-9898-5217a28356f0,1760433715283213831,5.081177,-1.95694,3.728867,-0.00293,-0.55127,0.862305,-0.4907340378427476,-34.22730127487205,-165.4209833677789,0.12251386046409607,-0.04139701649546623,0.29136767983436584,-0.9478299021720886
4e895505-d92d-4909-8278-4280a7505d5a,6d292281-5c1f-4061-9898-5217a28356f0,1760433715293888831,5.569458,-1.590729,4.095078,0.005859,-0.543945,0.864258,-0.4780209998570458,-34.16207112966605,-165.44160927863754,0.12232989072799683,-0.041171178221702576,0.2908489406108856,-0.948022723197937
4e895505-d92d-4909-8278-4280a7505d5a,6d292281-5c1f-4061-9898-5217a28356f0,1760433715304563831,6.238937,-1.22261,4.400253,0.001465,-0.524414,0.849609,-0.4570008007958492,-34.09116359217575,-165.46248949624896,0.12212444841861725,-0.040870171040296555,0.29029202461242676,-0.9482327103614807
4e895505-d92d-4909-8278-4280a7505d5a,6d292281-5c1f-4061-9898-5217a28356f0,1760433715315238831,6.118774,-0.797272,4.640579,-0.004395,-0.530762,0.828613,-0.4327398834349963,-34.02611271212642,-165.38761765731027,0.12270170450210571,-0.040790751576423645,0.2897529602050781,-0.9483259320259094
4e895505-d92d-4909-8278-4280a7505d5a,6d292281-5c1f-4061-9898-5217a28356f0,1760433715323250831,4.592896,0.362396,3.969193,0.017578,-0.531738,0.824707,-0.4166814824260638,-33.97286518534044,-165.33976331205426,0.12307274341583252,-0.0407225675880909,0.28931209444999695,-0.9484161734580994
4e895505-d92d-4909-8278-4280a7505d5a,6d292281-5c1f-4061-9898-5217a28356f0,1760433715331262831,3.250122,0.972748,2.93541,0.007812,-0.518066,0.82373,-0.3913585332417004,-33.92859713346721,-165.3364339576199,0.12304950505495071,-0.04047461971640587,0.28897160291671753,-0.9485335946083069
4e895505-d92d-4909-8278-4280a7505d5a,6d292281-5c1f-4061-9898-5217a28356f0,1760433715339274831,1.724243,1.216888,2.504349,-0.001465,-0.530273,0.838379,-0.3677070291712831,-33.89029877598606,-165.34828266252978,0.12290319055318832,-0.04020850732922554,0.28868404030799866,-0.9486514329910278
4e895505-d92d-4909-8278-4280a7505d5a,6d292281-5c1f-4061-9898-5217a28356f0,1760433715347286831,0.015259,1.522064,1.653671,0.00293,-0.526855,0.817871,-0.34138480245722175,-33.86961487967462,-165.37719068188957,0.12260373681783676,-0.03989594429731369,0.28855106234550476,-0.9487438201904297
4e895505-d92d-4909-8278-4280a7505d5a,6d292281-5c1f-4061-9898-5217a28356f0,1760433715357929831,-1.266479,1.522064,0.616074,0.003906,-0.532227,0.829102,-0.320915144062465,-33.865822352462146,-165.4345545246039,0.12207847088575363,-0.03957810625433922,0.2885616421699524,-0.9488208889961243
4e895505-d92d-4909-8278-4280a7505d5a,6d292281-5c1f-4061-9898-5217a28356f0,1760433715368572831,-2.670288,1.461029,0.005722,0.008789,-0.54248,0.829102,-0.30453592797922874,-33.873086587674834,-165.48526082435285,0.12161512672901154,-0.039322346448898315,0.2886565327644348,-0.948862612247467
4e895505-d92d-4909-8278-4280a7505d5a,6d292281-5c1f-4061-9898-5217a28356f0,1760433715379215831,-3.890991,1.70517,-0.482559,-0.015625,-0.556641,0.82373,-0.2827203674675067,-33.89819066007917,-165.5173153718921,0.12128716707229614,-0.03908717632293701,0.28889843821525574,-0.9488409757614136
4e895505-d92d-4909-8278-4280a7505d5a,6d292281-5c1f-4061-9898-5217a28356f0,1760433715387214831,-4.686356,1.092911,-0.91362,-0.016602,-0.547363,0.834961,-0.26231260033946446,-33.92650647228659,-165.53811645374552,0.12105493992567062,-0.03889533504843712,0.2891615927219391,-0.9487983584403992
4e895505-d92d-4909-8278-4280a7505d5a,6d292281-5c1f-4061-9898-5217a28356f0,1760433715395213831,-4.743576,1.276016,-0.482559,-0.029785,-0.543945,0.853027,-0.24174641051058596,-33.96028596417333,-165.5578443896543,0.1208295226097107,-0.0387105718255043,0.289469838142395,-0.9487402439117432
4e895505-d92d-4909-8278-4280a7505d5a,6d292281-5c1f-4061-9898-5217a28356f0,1760433715403212831,-4.928589,1.033783,-0.238419,-0.030273,-0.560059,0.85791,-0.21736043855747608,-33.99818020929504,-165.57283075889328,0.12063223868608475,-0.0385102853178978,0.28981420397758484,-0.9486688375473022
4e895505-d92d-4909-8278-4280a7505d5a,6d292281-5c1f-4061-9898-5217a28356f0,1760433715411211831,-5.052567,0.665665,0.432968,-0.023437,-0.563965,0.859863,-0.1901633058580648,-34.03624797851121,-165.5583831244805,0.12067136913537979,-0.03836144134402275,0.2901531755924225,-0.9485662579536438
4e895505-d92d-4909-8278-4280a7505d5a,6d292281-5c1f-4061-9898-5217a28356f0,1760433715421854831,-5.540848,0.665665,1.226425,-0.037598,-0.555176,0.84668,-0.1615947046996195,-34.0771067183192,-165.5618973747108,0.12055729329586029,-0.03815875202417374,0.29052266478538513,-0.9484758377075195
4e895505-d92d-4909-8278-4280a7505d5a,6d292281-5c1f-4061-9898-5217a28356f0,1760433715432497831,-5.2948,-0.30899,2.264023,-0.041016,-0.569824,0.841309,-0.12882952860968758,-34.12212436586974,-165.59489464246022,0.12018707394599915,-0.03785084933042526,0.29094067215919495,-0.948406994342804
4e895505-d92d-4909-8278-4280a7505d5a,6d292281-5c1f-4061-9898-5217a28356f0,1760433715443140831,-5.966187,-0.919342,3.480911,-0.039551,-0.577637,0.827148,-0.10041330646525437,-34.173617350467545,-165.60278779785904,0.12003343552350998,-0.037649333477020264,0.2913992404937744,-0.9482936859130859
4e895505-d92d-4909-8278-4280a7505d5a,6d292281-5c1f-4061-9898-5217a28356f0,1760433715453865831,-5.966187,-1.834869,4.278183,-0.02832,-0.575684,0.849121,-0.04554383158659372,-34.286309441459295,-165.53830980021993,0.12039140611886978,-0.03747743368148804,0.2923681139945984,-0.9479568600654602
4e895505-d92d-4909-8278-4280a7505d5a,6d292281-5c1f-4061-9898-5217a28356f0,1760433715464591831,-6.637573,-2.384186,4.640579,-0.022949,-0.57959,0.838379,-0.025307306542597136,-34.34752172287751,-165.52222493289426,0.12045309692621231,-0.03741535544395447,0.2928904891014099,-0.9477901458740234
4e895505-d92d-4909-8278-4280a7505d5a,6d292281-5c1f-4061-9898-5217a28356f0,1760433715475317831,-6.822586,-2.996445,5.010605,-0.008301,-0.595215,0.846191,-0.015005726728080551,-34.415004135456485,-165.5379472138811,0.12027488648891449,-0.03736075013875961,0.2934645414352417,-0.9476373791694641
4e895505-d92d-4909-8278-4280a7505d5a,6d292281-5c1f-4061-9898-5217a28356f0,1760433715483288831,-7.616043,-3.17955,4.640579,0.001465,-0.595703,0.836914,-0.010063531187380412,-34.485362015634294,-165.48556487033696,0.12067248672246933,-0.03752809390425682,0.2940343916416168,-0.9474035501480103
4e895505-d92d-4909-8278-4280a7505d5a,6d292281-5c1f-4061-9898-5217a28356f0,1760433715491260831,-7.310867,-3.17955,4.400253,-0.010742,-0.608887,0.84668,-0.008190674336734153,-34.558973631605646,-165.4444722357691,0.1209833174943924,-0.0376957543194294,0.2946314215660095,-0.947171688079834
4e895505-d92d-4909-8278-4280a7505d5a,6d292281-5c1f-4061-9898-5217a28356f0,1760433715499232831,-6.942749,-3.116608,3.545761,0.006836,-0.59668,0.857422,-0.018007665278647386,-34.62652614069682,-165.4372206813652,0.12104637175798416,-0.037866853177547455,0.29517698287963867,-0.9469869136810303
4e895505-d92d-4909-8278-4280a7505d5a,6d292281-5c1f-4061-9898-5217a28356f0,1760433715507204831,-6.271362,-2.994537,2.874374,0.024902,-0.599121,0.861328,-0.03522347773852701,-34.688682621128436,-165.42678586338525,0.12115661799907684,-0.03810162842273712,0.29566895961761475,-0.9468098878860474
4e895505-d92d-4909-8278-4280a7505d5a,6d292281-5c1f-4061-9898-5217a28356f0,1760433715517869831,-5.111694,-3.055573,2.199173,0.003906,-0.612305,0.870117,-0.0501783611287562,-34.74553101267745,-165.3985119866397,0.12141020596027374,-0.03835824504494667,0.29611337184906006,-0.9466281533241272
4e895505-d92d-4909-8278-4280a7505d5a,6d292281-5c1f-4061-9898-5217a28356f0,1760433715528534831,-4.257202,-3.238678,1.714706,-0.001953,-0.623047,0.864746,-0.06485716955128332,-34.79266457426796,-165.40673424474883,0.12136483192443848,-0.03850805014371872,0.296489953994751,-0.9465099573135376
4e895505-d92d-4909-8278-4280a7505d5a,6d292281-5c1f-4061-9898-5217a28356f0,1760433715539199831,-2.731323,-3.360748,1.714706,0.007324,-0.604492,0.85791,-0.08828887256515337,-34.831490288812134,-165.42963932207417,0.12122365087270737,-0.038683246821165085,0.29679355025291443,-0.9464257955551147
4e895505-d92d-4909-8278-4280a7505d5a,6d292281-5c1f-4061-9898-5217a28356f0,1760433715547226831,-1.998901,-3.665924,1.592636,0.01123,-0.601074,0.869629,-0.13418325239816115,-34.87331637096651,-165.45589943268533,0.12111219018697739,-0.039038240909576416,0.29709938168525696,-0.9463295340538025
4e895505-d92d-4909-8278-4280a7505d5a,6d292281-5c1f-4061-9898-5217a28356f0,1760433715555255831,-1.327515,-4.276276,2.016068,0.009766,-0.584961,0.856445,-0.16546757269463533,-34.88141102135525,-165.46593776533106,0.12110781669616699,-0.039279066026210785,0.2971366047859192,-0.946308434009552
4e895505-d92d-4909-8278-4280a7505d5a,6d292281-5c1f-4061-9898-5217a28356f0,1760433715563284831,-0.839233,-4.825592,2.080917,0.008301,-0.578613,0.854492,-0.19505555665966307,-34.87919472986485,-165.48815634139865,0.12100175023078918,-0.03946347534656525,0.2970946729183197,-0.9463275074958801
4e895505-d92d-4909-8278-4280a7505d5a,6d292281-5c1f-4061-9898-5217a28356f0,1760433715571313831,-0.228882,-4.337311,2.504349,0.028809,-0.572266,0.842773,-0.23034414378241566,-34.872538756362374,-165.49248884094004,0.12105954438447952,-0.03973670303821564,0.29700392484664917,-0.9463371634483337
4e895505-d92d-4909-8278-4280a7505d5a,6d292281-5c1f-4061-9898-5217a28356f0,1760433715581938831,-0.108719,-4.156113,2.321243,0.042969,-0.592285,0.840332,-0.263610281432623,-34.87164351408888,-165.46886866182402,0.12134109437465668,-0.040071696043014526,0.29695311188697815,-0.9463029503822327
4e895505-d92d-4909-8278-4280a7505d5a,6d292281-5c1f-4061-9898-5217a28356f0,1760433715592563831,-0.167847,-3.055573,1.470566,0.041992,-0.578613,0.82666,-0.2967488569438974,-34.8736199558139,-165.49641012791565,0.12119891494512558,-0.04027605429291725,0.2969440221786499,-0.946315348148346
4e895505-d92d-4909-8278-4280a7505d5a,6d292281-5c1f-4061-9898-5217a28356f0,1760433715603188831,-1.144409,-2.07901,0.738144,0.043945,-0.572266,0.818848,-0.3326029588608914,-34.88121090474901,-165.52903278267001,0.12102009356021881,-0.04049551486968994,0.2969803214073181,-0.9463174939155579
4e895505-d92d-4909-8278-4280a7505d5a,6d292281-5c1f-4061-9898-5217a28356f0,1760433715613852831,-2.304077,-1.285553,-0.97084,0.038086,-0.588867,0.807617,-0.3613214833885375,-34.90375284154634,-165.54768410055806,0.1209336593747139,-0.04070776328444481,0.29714280366897583,-0.9462684392929077
4e895505-d92d-4909-8278-4280a7505d5a,6d292281-5c1f-4061-9898-5217a28356f0,1760433715624517831,-3.892899,-1.04332,-1.642227,0.038086,-0.568359,0.813965,-0.39498756489185116,-34.931328043037084,-165.6105433195687,0.12049360573291779,-0.04085128381848335,0.2973574697971344,-0.9462509751319885
4e895505-d92d-4909-8278-4280a7505d5a,6d292281-5c1f-4061-9898-5217a28356f0,1760433715635182831,-4.743576,-0.555038,-2.61879,0.033203,-0.57959,0.818359,-0.42946834328778716,-34.970254216543715,-165.67749191441743,0.12001872062683105,-0.041002314537763596,0.2976667284965515,-0.9462075233459473
4e895505-d92d-4909-8278-4280a7505d5a,6d292281-5c1f-4061-9898-5217a28356f0,1760433715643258831,-5.235672,-0.494003,-3.656387,0.011719,-0.600586,0.817871,-0.5035489644997485,-35.07336161062358,-165.82390565636663,0.11897243559360504,-0.041338447481393814,0.2984936833381653,-0.9460644721984863
4e895505-d92d-4909-8278-4280a7505d5a,6d292281-5c1f-4061-9898-5217a28356f0,1760433715651332831,-6.212234,-0.188828,-4.209518,0.020508,-0.596191,0.830078,-0.5397568336860755,-35.13603344498357,-165.9210353842559,0.11824703961610794,-0.04144752025604248,0.29900887608528137,-0.9459879398345947
4e895505-d92d-4909-8278-4280a7505d5a,6d292281-5c1f-4061-9898-5217a28356f0,1760433715659406831,-6.639481,0.116348,-4.938126,0.01709,-0.599121,0.842773,-0.5752833402607314,-35.198056049937755,-166.00449340840905,0.1176333948969841,-0.04158509150147438,0.2995147407054901,-0.9458983540534973
4e895505-d92d-4909-8278-4280a7505d5a,6d292281-5c1f-4061-9898-5217a28356f0,1760433715667480831,-6.700516,0.665665,-5.369186,-0.009277,-0.610352,0.841797,-0.5967892819338398,-35.261247679646765,-166.05427234536802,0.11726115643978119,-0.041695453226566315,0.3000325858592987,-0.94577556848526
4e895505-d92d-4909-8278-4280a7505d5a,6d292281-5c1f-4061-9898-5217a28356f0,1760433715678075831,-6.454468,0.301361,-5.369186,-0.004395,-0.609863,0.840332,-0.6173063420784476,-35.319785341451365,-166.06209394399218,0.11723413318395615,-0.04190254583954811,0.30049774050712585,-0.9456220865249634
4e895505-d92d-4909-8278-4280a7505d5a,6d292281-5c1f-4061-9898-5217a28356f0,1760433715688670831,-5.723953,0.059128,-4.75502,-0.005859,-0.625977,0.852051,-0.6354993573063954,-35.37611823529168,-166.14244702343822,0.1166033148765564,-0.04189765453338623,0.3009736239910126,-0.9455488920211792
4e895505-d92d-4909-8278-4280a7505d5a,6d292281-5c1f-4061-9898-5217a28356f0,1760433715699265831,-5.052567,-0.371933,-4.083633,-0.013672,-0.624023,0.856934,-0.6487727555741241,-35.42412553120314,-166.20478017417994,0.11611077189445496,-0.04189068078994751,0.3013792335987091,-0.9454805850982666
4e895505-d92d-4909-8278-4280a7505d5a,6d292281-5c1f-4061-9898-5217a28356f0,1760433715709906831,-3.892899,-0.494003,-1.825333,-0.025391,-0.610352,0.851562,-0.6525148283449104,-35.464549499023164,-166.22610669937154,0.11593367904424667,-0.04190515726804733,0.3017169237136841,-0.9453939199447632
4e895505-d92d-4909-8278-4280a7505d5a,6d292281-5c1f-4061-9898-5217a28356f0,1760433715720550831,-2.916336,-0.494003,-0.84877,-0.022461,-0.617188,0.853027,-0.6508001419625439,-35.49865748864796,-166.26179801805003,0.11562545597553253,-0.041830431669950485,0.30201321840286255,-0.9453403353691101
4e895505-d92d-4909-8278-4280a7505d5a,6d292281-5c1f-4061-9898-5217a28356f0,1760433715731194831,-2.428055,-1.22261,0.062943,-0.018066,-0.616211,0.859863,-0.6457979674220377,-35.52624197387382,-166.32337679737094,0.1150968074798584,-0.04165375977754593,0.302268385887146,-0.9453309774398804
4e895505-d92d-4909-8278-4280a7505d5a,6d292281-5c1f-4061-9898-5217a28356f0,1760433715739183831,-1.939774,-1.470566,0.921249,-0.01416,-0.615723,0.849609,-0.637142409552261,-35.54973952926899,-166.36126425574193,0.1147550642490387,-0.04150525480508804,0.30248475074768066,-0.9453098177909851
4e895505-d92d-4909-8278-4280a7505d5a,6d292281-5c1f-4061-9898-5217a28356f0,1760433715747172831,-1.205444,-1.834869,1.832962,-0.015137,-0.610352,0.852539,-0.6300530503965419,-35.563780000528126,-166.36625339199773,0.11469139158725739,-0.04144724830985069,0.30260953307151794,-0.945280134677887
4e895505-d92d-4909-8278-4280a7505d5a,6d292281-5c1f-4061-9898-5217a28356f0,1760433715755161831,-0.778198,-2.262115,2.264023,0.004883,-0.61377,0.841797,-0.629917409081895,-35.5770965229355,-166.33144463900814,0.11497455090284348,-0.041551023721694946,0.3027069568634033,-0.9452099800109863
4e895505-d92d-4909-8278-4280a7505d5a,6d292281-5c1f-4061-9898-5217a28356f0,1760433715763150831,-0.350952,-2.811432,2.386093,-0.001953,-0.604004,0.834961,-0.6305376013833208,-35.58378684802107,-166.33320132468975,0.11495988070964813,-0.04155801609158516,0.3027621805667877,-0.9451937675476074
4e895505-d92d-4909-8278-4280a7505d5a,6d292281-5c1f-4061-9898-5217a28356f0,1760433715774012831,-0.595093,-3.360748,2.504349,0.003906,-0.609375,0.837891,-0.6392153712157238,-35.58879052122852,-166.31664163557457,0.11511803418397903,-0.04167822003364563,0.30278873443603516,-0.9451607465744019
4e895505-d92d-4909-8278-4280a7505d5a,6d292281-5c1f-4061-9898-5217a28356f0,1760433715784874831,-0.350952,-3.604889,2.504349,0.01123,-0.597168,0.823242,-0.6556145335633142,-35.59440892473809,-166.26685832731786,0.11557044088840485,-0.04195050895214081,0.30280041694641113,-0.9450897574424744
4e895505-d92d-4909-8278-4280a7505d5a,6d292281-5c1f-4061-9898-5217a28356f0,1760433715795736831,-0.106812,-4.09317,2.321243,0.012695,-0.607422,0.841309,-0.671689891896797,-35.5953890998789,-166.24690878726014,0.11577717959880829,-0.04213675856590271,0.3027849495410919,-0.9450611472129822
4e895505-d92d-4909-8278-4280a7505d5a,6d292281-5c1f-4061-9898-5217a28356f0,1760433715803608831,0.013351,-4.278183,2.264023,0.007324,-0.594238,0.833984,-0.7224198623345387,-35.591434409921746,-166.28783392420655,0.11557473987340927,-0.04244315251708031,0.3027161955833435,-0.9450942873954773
4e895505-d92d-4909-8278-4280a7505d5a,6d292281-5c1f-4061-9898-5217a28356f0,1760433715811481831,0.076294,-4.825592,2.447128,0.031738,-0.598145,0.830566,-0.7566457740813637,-35.594587787614834,-166.30193469309867,0.1155480146408081,-0.042691245675086975,0.30271291732788086,-0.9450874924659729
4e895505-d92d-4909-8278-4280a7505d5a,6d292281-5c1f-4061-9898-5217a28356f0,1760433715819354831,-0.228882,-5.008698,2.264023,0.034668,-0.583496,0.82373,-0.7978955797681883,-35.59586036295423,-166.3205706023878,0.11550293862819672,-0.04298345372080803,0.3026887774467468,-0.9450875520706177
4e895505-d92d-4909-8278-4280a7505d5a,6d292281-5c1f-4061-9898-5217a28356f0,1760433715827227831,-0.837326,-5.132675,2.016068,0.032227,-0.585449,0.827148,-0.8377607379211172,-35.60007984725905,-166.31652920129525,0.11564047634601593,-0.043327003717422485,0.3026818633079529,-0.9450572729110718
4e895505-d92d-4909-8278-4280a7505d5a,6d292281-5c1f-4061-9898-5217a28356f0,1760433715837925831,-1.451492,-4.94957,2.199173,0.039062,-0.576172,0.818848,-0.8783916507457797,-35.61381924550501,-166.30490879722683,0.1158401221036911,-0.04370611160993576,0.30274978280067444,-0.9449936151504517
4e895505-d92d-4909-8278-4280a7505d5a,6d292281-5c1f-4061-9898-5217a28356f0,1760433715848623831,-1.998901,-3.543854,1.958847,0.035156,-0.597656,0.819824,-0.9109232599419876,-35.63124597871057,-166.28655030891684,0.11607304215431213,-0.04403979703783989,0.30285361409187317,-0.944916307926178
4e895505-d92d-4909-8278-4280a7505d5a,6d292281-5c1f-4061-9898-5217a28356f0,1760433715859321831,-2.059937,-3.116608,1.527786,0.053223,-0.594727,0.831055,-0.9450711755985132,-35.651767469860395,-166.29339178480214,0.11610172688961029,-0.04432319104671478,0.30299097299575806,-0.9448555111885071
4e895505-d92d-4909-8278-4280a7505d5a,6d292281-5c1f-4061-9898-5217a28356f0,1760433715869944831,-2.731323,-1.773834,0.738144,0.038574,-0.577148,0.839844,-0.9770769001046778,-35.6692234908606,-166.33333465589283,0.11585267633199692,-0.044498343020677567,0.3031180799007416,-0.9448370933532715
4e895505-d92d-4909-8278-4280a7505d5a,6d292281-5c1f-4061-9898-5217a28356f0,1760433715880568831,-2.975464,-0.675201,-0.177383,0.04834,-0.601562,0.824219,-1.0080622154378123,-35.69454034536948,-166.34760974964533,0.11581072211265564,-0.0447404682636261,0.3033011853694916,-0.9447720646858215
4e895505-d92d-4909-8278-4280a7505d5a,6d292281-5c1f-4061-9898-5217a28356f0,1760433715891192831,-2.670288,-0.247955,-0.177383,0.050293,-0.61084,0.822754,-1.033738760963084,-35.725186352910626,-166.37695956569274,0.11562925577163696,-0.044903941452503204,0.30353957414627075,-0.9447099566459656
4e895505-d92d-4909-8278-4280a7505d5a,6d292281-5c1f-4061-9898-5217a28356f0,1760433715901851831,-2.733231,-0.066757,-0.79155,0.044434,-0.605469,0.855957,-1.067667103895368,-35.76925724124474,-166.45241887998733,0.11508647352457047,-0.04502585902810097,0.3038986027240753,-0.9446550011634827
4e895505-d92d-4909-8278-4280a7505d5a,6d292281-5c1f-4061-9898-5217a28356f0,1760433715912509831,-1.939774,0.787735,-1.585007,0.04248,-0.615234,0.847656,-1.085657974576449,-35.783408568959096,-166.49366345329682,0.11479081958532333,-0.045078255236148834,0.30401352047920227,-0.9446514844894409
4e895505-d92d-4909-8278-4280a7505d5a,6d292281-5c1f-4061-9898-5217a28356f0,1760433715923167831,-1.451492,1.153946,-1.947403,0.027344,-0.60791,0.848144,-1.094908992731929,-35.7899830127963,-166.54216495712285,0.11441398411989212,-0.0450320765376091,0.3040775954723358,-0.9446787238121033
4e895505-d92d-4909-8278-4280a7505d5a,6d292281-5c1f-4061-9898-5217a28356f0,1760433715931180831,-0.717163,1.338959,-2.86293,0.024902,-0.595703,0.84082,-1.1002959542288264,-35.79892384851629,-166.60304794663165,0.11392426490783691,-0.04492335766553879,0.3041698932647705,-0.9447133541107178
4e895505-d92d-4909-8278-4280a7505d5a,6d292281-5c1f-4061-9898-5217a28356f0,1760433715939196831,-0.778198,2.010345,-2.61879,0.01709,-0.583984,0.830078,-1.105408492116973,-35.803341210488206,-166.6740215685741,0.11335167288780212,-0.04478125274181366,0.3042290508747101,-0.9447699189186096
4e895505-d92d-4909-8278-4280a7505d5a,6d292281-5c1f-4061-9898-5217a28356f0,1760433715947212831,-1.268387,1.764297,-2.61879,0.013184,-0.592773,0.838867,-1.1071381214664509,-35.808098000428494,-166.68433615348326,0.11327012628316879,-0.04477258771657944,0.3042706251144409,-0.9447667002677917
4e895505-d92d-4909-8278-4280a7505d5a,6d292281-5c1f-4061-9898-5217a28356f0,1760433715955228831,-1.815796,1.82724,-2.435684,0.006836,-0.580566,0.835938,-1.1047712589832457,-35.81256062152256,-166.71345328447072,0.11302274465560913,-0.044679928570985794,0.30432114005088806,-0.9447844624519348
4e895505-d92d-4909-8278-4280a7505d5a,6d292281-5c1f-4061-9898-5217a28356f0,1760433715965987831,-2.365112,1.399994,-2.130508,0.015137,-0.603027,0.827148,-1.1018394506024973,-35.83191736066319,-166.7869797592838,0.11240428686141968,-0.04447847977280617,0.3045123517513275,-0.9448060989379883
4e895505-d92d-4909-8278-4280a7505d5a,6d292281-5c1f-4061-9898-5217a28356f0,1760433715976746831,-2.853394,1.70517,-2.073288,0.012695,-0.592773,0.833008,-1.1032041176445007,-35.84937941632787,-166.8371771682419,0.11199004203081131,-0.04437250643968582,0.30467456579208374,-0.9448079466819763
4e895505-d92d-4909-8278-4280a7505d5a,6d292281-5c1f-4061-9898-5217a28356f0,1760433715987505831,-3.463745,1.82724,-1.768112,0.003418,-0.594238,0.830078,-1.0959181615808284,-35.8774349583268,-166.88747389577884,0.11154957860708237,-0.04420458525419235,0.3049326241016388,-0.9447845816612244
4e895505-d92d-4909-8278-4280a7505d5a,6d292281-5c1f-4061-9898-5217a28356f0,1760433715998069831,-4.014969,1.581192,-1.947403,0.021973,-0.603516,0.834961,-1.094030558830309,-35.94784960722213,-167.00802395640557,0.11053471267223358,-0.04393255338072777,0.3055618107318878,-0.9447131156921387
4e895505-d92d-4909-8278-4280a7505d5a,6d292281-5c1f-4061-9898-5217a28356f0,1760433716008635831,-3.952026,1.461029,-2.008438,0.008301,-0.619629,0.850098,-1.0953857869684431,-35.977635397574055,-167.05995255090937,0.11010352522134781,-0.043832357972860336,0.3058261573314667,-0.9446824789047241
4e895505-d92d-4909-8278-4280a7505d5a,6d292281-5c1f-4061-9898-5217a28356f0,1760433716019201831,-3.28064,1.216888,-2.256393,0.018555,-0.614258,0.854492,-1.1003473643926696,-36.00078338344517,-167.07981926880808,0.1099478006362915,-0.04384126141667366,0.30601996183395386,-0.9446374177932739
4e895505-d92d-4909-8278-4280a7505d5a,6d292281-5c1f-4061-9898-5217a28356f0,1760433716029875831,-1.754761,1.644135,-2.86293,0.016113,-0.602051,0.859863,-1.100371024269295,-36.01600110021776,-167.12152396696345,0.10960058122873306,-0.043743789196014404,0.30616116523742676,-0.9446372389793396
4e895505-d92d-4909-8278-4280a7505d5a,6d292281-5c1f-4061-9898-5217a28356f0,1760433716040549831,-0.656128,1.888275,-3.04985,0.01123,-0.599609,0.851074,-1.1012422358306586,-36.024496417468036,-167.2004833152472,0.10895010083913803,-0.04354764148592949,0.30626049637794495,-0.9446893334388733
4e895505-d92d-4909-8278-4280a7505d5a,6d292281-5c1f-4061-9898-5217a28356f0,1760433716051223831,0.013351,1.825333,-3.107071,0.003418,-0.598633,0.845703,-1.0953404458300249,-36.021084020882654,-167.17814562540238,0.1091192364692688,-0.0435556136071682,0.30622947216033936,-0.9446794986724854
4e895505-d92d-4909-8278-4280a7505d5a,6d292281-5c1f-4061-9898-5217a28356f0,1760433716059222831,-0.045776,1.82724,-2.744675,0.0,-0.591309,0.837891,-1.0789071581366412,-36.014786361392964,-167.19835414580152,0.10891012102365494,-0.04336046054959297,0.3062008023262024,-0.9447219371795654
4e895505-d92d-4909-8278-4280a7505d5a,6d292281-5c1f-4061-9898-5217a28356f0,1760433716067223831,0.320435,1.94931,-2.313614,-0.021973,-0.588379,0.828125,-1.0572410243822432,-36.00541474448168,-167.2328145267527,0.10857021808624268,-0.043081335723400116,0.30615705251693726,-0.9447879791259766
4e895505-d92d-4909-8278-4280a7505d5a,6d292281-5c1f-4061-9898-5217a28356f0,1760433716075224831,-0.167847,1.644135,-1.768112,-0.018066,-0.584961,0.829102,-1.0340709790316183,-35.999816216273985,-167.2846266367935,0.1080823689699173,-0.04274684935808182,0.3061521649360657,-0.9448606967926025
4e895505-d92d-4909-8278-4280a7505d5a,6d292281-5c1f-4061-9898-5217a28356f0,1760433716083225831,0.137329,1.277924,-0.7267,-0.022949,-0.593262,0.81543,-1.0094501823178246,-35.999515980011026,-167.3155429406182,0.10776173323392868,-0.04246096685528755,0.3061843812465668,-0.9448997378349304
4e895505-d92d-4909-8278-4280a7505d5a,6d292281-5c1f-4061-9898-5217a28356f0,1760433716091225831,-0.350952,0.850677,0.368118,-0.01709,-0.605957,0.820312,-0.9842238253280624,-36.00192095317807,-167.33539879117603,0.10753004997968674,-0.04220204055309296,0.30623525381088257,-0.9449212551116943
4e895505-d92d-4909-8278-4280a7505d5a,6d292281-5c1f-4061-9898-5217a28356f0,1760433716099225831,-0.595093,0.362396,1.470566,-0.012207,-0.599121,0.816895,-0.9564284823646281,-36.010713332700284,-167.3458970001393,0.10736718773841858,-0.041952624917030334,0.30633771419525146,-0.9449176788330078
4e895505-d92d-4909-8278-4280a7505d5a,6d292281-5c1f-4061-9898-5217a28356f0,1760433716107225831,-1.022339,-0.30899,2.199173,-0.011719,-0.586426,0.816406,-0.9353656682950052,-36.02174697335822,-167.30376312688276,0.10765575617551804,-0.04190146178007126,0.3064330816268921,-0.9448562264442444
4e895505-d92d-4909-8278-4280a7505d5a,6d292281-5c1f-4061-9898-5217a28356f0,1760433716115225831,-1.63269,-0.919342,2.504349,-0.003906,-0.595215,0.826172,-0.9196201403508086,-36.0353064358167,-167.27124406993755,0.10787862539291382,-0.041870780289173126,0.3065478801727295,-0.9447948932647705
4e895505-d92d-4909-8278-4280a7505d5a,6d292281-5c1f-4061-9898-5217a28356f0,1760433716125892831,-2.122879,-1.16539,2.99263,0.002441,-0.59375,0.824219,-0.9060257022508209,-36.0512929125935,-167.25982655868884,0.10793264955282211,-0.041803620755672455,0.3066883981227875,-0.9447460770606995
4e895505-d92d-4909-8278-4280a7505d5a,6d292281-5c1f-4061-9898-5217a28356f0,1760433716136559831,-2.914429,-1.285553,3.30162,0.013184,-0.607422,0.817871,-0.898396143218476,-36.078584871744766,-167.23998654194415,0.10806936770677567,-0.04181840643286705,0.30691346526145935,-0.9446567296981812
4e895505-d92d-4909-8278-4280a7505d5a,6d292281-5c1f-4061-9898-5217a28356f0,1760433716147226831,-2.975464,-1.346588,2.752304,0.020996,-0.610352,0.81543,-0.8976901431532287,-36.11100216589391,-167.21069544184417,0.10830127447843552,-0.041920311748981476,0.3071708083152771,-0.9445419907569885
4e895505-d92d-4909-8278-4280a7505d5a,6d292281-5c1f-4061-9898-5217a28356f0,1760433716157891831,-3.28064,-0.980377,2.199173,0.016602,-0.597656,0.836914,-0.8995070575862667,-36.13745591636219,-167.19744369746545,0.1084091067314148,-0.041994720697402954,0.30738240480422974,-0.944457471370697
4e895505-d92d-4909-8278-4280a7505d5a,6d292281-5c1f-4061-9898-5217a28356f0,1760433716168556831,-3.219604,-0.797272,1.409531,0.019531,-0.612305,0.835449,-0.9026911396046229,-36.164185030567204,-167.20239656359823,0.10837049782276154,-0.042031824588775635,0.3076016306877136,-0.9443888664245605
4e895505-d92d-4909-8278-4280a7505d5a,6d292281-5c1f-4061-9898-5217a28356f0,1760433716179221831,-3.036499,-1.102448,0.799179,0.01123,-0.61084,0.827637,-0.9090266199942844,-36.19402185844292,-167.2248701295473,0.1081952452659607,-0.04205060750246048,0.3078499138355255,-0.9443272352218628
4e895505-d92d-4909-8278-4280a7505d5a,6d292281-5c1f-4061-9898-5217a28356f0,1760433716187220831,-3.158569,-2.506256,0.432968,0.017578,-0.600586,0.819336,-0.9268690858285402,-36.21912162693053,-167.24636149596734,0.10806018114089966,-0.04216248169541359,0.30804792046546936,-0.9442731738090515
4e895505-d92d-4909-8278-4280a7505d5a,6d292281-5c1f-4061-9898-5217a28356f0,1760433716195220831,-2.975464,-2.994537,0.062943,0.014648,-0.605469,0.836914,-0.9518908796222478,-36.24528450717446,-167.27323028218623,0.10789996385574341,-0.04231991246342659,0.30824998021125793,-0.9442184567451477
4e895505-d92d-4909-8278-4280a7505d5a,6d292281-5c1f-4061-9898-5217a28356f0,1760433716203220831,-2.975464,-3.238678,0.062943,0.027832,-0.609863,0.829102,-0.9838579749408829,-36.2731476761872,-167.31050625959588,0.10767240822315216,-0.04250793904066086,0.3084634244441986,-0.9441663026809692
4e895505-d92d-4909-8278-4280a7505d5a,6d292281-5c1f-4061-9898-5217a28356f0,1760433716211220831,-3.158569,-3.116608,0.062943,0.022461,-0.599609,0.84082,-1.0158883091573534,-36.29415360625993,-167.33121622872363,0.10758322477340698,-0.042734820395708084,0.30861422419548035,-0.9441169500350952
4e895505-d92d-4909-8278-4280a7505d5a,6d292281-5c1f-4061-9898-5217a28356f0,1760433716221862831,-2.853394,-2.872467,0.127792,0.038574,-0.617676,0.838867,-1.046299674778379,-36.31916351615053,-167.3275581106548,0.10768964141607285,-0.04301749914884567,0.3087904751300812,-0.9440343379974365
4e895505-d92d-4909-8278-4280a7505d5a,6d292281-5c1f-4061-9898-5217a28356f0,1760433716232504831,-2.428055,-1.958847,-0.177383,0.027344,-0.608398,0.847656,-1.0734891882034623,-36.33944033590916,-167.36156485359297,0.10747823864221573,-0.0431678481400013,0.3089448809623718,-0.9440010786056519
4e895505-d92d-4909-8278-4280a7505d5a,6d292281-5c1f-4061-9898-5217a28356f0,1760433716243146831,-1.939774,-0.799179,-0.238419,0.027832,-0.61084,0.85791,-1.098365197373917,-36.353854481064744,-167.399907427917,0.10722627490758896,-0.043282151222229004,0.3090548813343048,-0.9439884424209595
4e895505-d92d-4909-8278-4280a7505d5a,6d292281-5c1f-4061-9898-5217a28356f0,1760433716251177831,-1.571655,0.240326,-0.608444,0.03418,-0.609375,0.853027,-1.1271213292464348,-36.37402705686055,-167.491456167234,0.10654528439044952,-0.04328981786966324,0.30922892689704895,-0.9440082311630249
4e895505-d92d-4909-8278-4280a7505d5a,6d292281-5c1f-4061-9898-5217a28356f0,1760433716259209831,-0.963211,1.218796,-0.91362,0.025391,-0.608398,0.844238,-1.1297678510790918,-36.37610631463818,-167.54114971370674,0.10614259541034698,-0.043179333209991455,0.30926236510276794,-0.9440476894378662
4e895505-d92d-4909-8278-4280a7505d5a,6d292281-5c1f-4061-9898-5217a28356f0,1760433716267241831,-0.411987,1.399994,-1.459122,0.036621,-0.615234,0.836426,-1.134286576761505,-36.37869375365082,-167.56937536324241,0.10592170059680939,-0.04314263537526131,0.3092901408672333,-0.9440650939941406
4e895505-d92d-4909-8278-4280a7505d5a,6d292281-5c1f-4061-9898-5217a28356f0,1760433716275273831,-0.291824,1.459122,-1.459122,0.026855,-0.608398,0.834473,-1.1325672631728332,-36.379080393526536,-167.58970449315228,0.10574949532747269,-0.04307393729686737,0.30930256843566895,-0.9440834522247314
4e895505-d92d-4909-8278-4280a7505d5a,6d292281-5c1f-4061-9898-5217a28356f0,1760433716285951831,-0.350952,1.644135,-1.886368,0.017578,-0.619629,0.835449,-1.1333308223489307,-36.38529072455801,-167.60467595253039,0.10562688857316971,-0.04304520785808563,0.309358686208725,-0.944080114364624
4e895505-d92d-4909-8278-4280a7505d5a,6d292281-5c1f-4061-9898-5217a28356f0,1760433716296629831,-0.413895,1.581192,-1.825333,0.01416,-0.617188,0.839844,-1.1323068761663215,-36.38739627582508,-167.66578834218598,0.10512018203735352,-0.042873602360486984,0.30939990282058716,-0.9441309571266174
4e895505-d92d-4909-8278-4280a7505d5a,6d292281-5c1f-4061-9898-5217a28356f0,1760433716307307831,-0.350952,1.399994,-2.073288,0.019531,-0.616699,0.828125,-1.1362538762885603,-36.39414431989427,-167.69935563445298,0.10485285520553589,-0.04282130300998688,0.3094644844532013,-0.9441418647766113
4e895505-d92d-4909-8278-4280a7505d5a,6d292281-5c1f-4061-9898-5217a28356f0,1760433716317941831,-1.022339,0.728607,-2.073288,0.02002,-0.613281,0.835938,-1.1394250771802796,-36.40251503629124,-167.6763603220603,0.10504911094903946,-0.04291674867272377,0.30952197313308716,-0.9440969228744507
4e895505-d92d-4909-8278-4280a7505d5a,6d292281-5c1f-4061-9898-5217a28356f0,1760433716328576831,-1.38855,0.240326,-1.703262,0.011719,-0.618652,0.831543,-1.1458364855171355,-36.41268637400483,-167.70786120707808,0.10480476915836334,-0.04289323836565018,0.3096117675304413,-0.9440956711769104
4e895505-d92d-4909-8278-4280a7505d5a,6d292281-5c1f-4061-9898-5217a28356f0,1760433716339211831,-0.717163,-0.003815,-1.585007,0.032227,-0.598633,0.84082,-1.1558556856874078,-36.420142894856035,-167.74714841495262,0.10450660437345505,-0.04287602752447128,0.3096787929534912,-0.9441075325012207
4e895505-d92d-4909-8278-4280a7505d5a,6d292281-5c1f-4061-9898-5217a28356f0,1760433716349967831,-0.228882,-0.492096,-1.886368,0.013672,-0.621094,0.853516,-1.1846184764057035,-36.41449684260398,-167.83080727845558,0.10389620810747147,-0.04288212209939957,0.3096373975276947,-0.9441881775856018
4e895505-d92d-4909-8278-4280a7505d5a,6d292281-5c1f-4061-9898-5217a28356f0,1760433716360723831,0.379562,-0.677109,-2.008438,0.023438,-0.60498,0.838867,-1.2085830487084008,-36.403928166311616,-167.8831350610268,0.10353191196918488,-0.04292924329638481,0.30954813957214355,-0.9442553520202637
4e895505-d92d-4909-8278-4280a7505d5a,6d292281-5c1f-4061-9898-5217a28356f0,1760433716371479831,0.686646,-0.614166,-1.520157,0.026855,-0.604004,0.832519,-1.2302674628618955,-36.38814863502069,-167.94259114957032,0.10310366749763489,-0.04293404147028923,0.30942073464393616,-0.9443437457084656
4e895505-d92d-4909-8278-4280a7505d5a,6d292281-5c1f-4061-9898-5217a28356f0,1760433716382043831,1.480103,-0.125885,-1.279831,0.031738,-0.601074,0.839844,-1.2529290289514505,-36.36848260079308,-167.9752500084847,0.10289955139160156,-0.04301611706614494,0.3092504143714905,-0.9444180727005005
4e895505-d92d-4909-8278-4280a7505d5a,6d292281-5c1f-4061-9898-5217a28356f0,1760433716392607831,2.027512,0.299454,-1.398087,0.022461,-0.609375,0.830078,-1.2677011203691375,-36.3499202999637,-167.9636472309481,0.10303864628076553,-0.04315359517931938,0.30907967686653137,-0.9444525241851807
4e895505-d92d-4909-8278-4280a7505d5a,6d292281-5c1f-4061-9898-5217a28356f0,1760433716403171831,1.785278,0.850677,-1.031876,0.026367,-0.583496,0.82373,-1.2750598383264529,-36.325233130609476,-167.99374377750974,0.10281520336866379,-0.04311240836977959,0.3088807761669159,-0.9445437788963318
4e895505-d92d-4909-8278-4280a7505d5a,6d292281-5c1f-4061-9898-5217a28356f0,1760433716411178831,1.724243,1.277924,-1.031876,0.014648,-0.590332,0.813477,-1.2692126050931638,-36.29040274932027,-167.94622203249278,0.10319790244102478,-0.04316302388906479,0.30858081579208374,-0.9445977807044983
4e895505-d92d-4909-8278-4280a7505d5a,6d292281-5c1f-4061-9898-5217a28356f0,1760433716419185831,0.62561,1.583099,-0.055313,0.019043,-0.589355,0.820312,-1.2518632814036577,-36.27944506052561,-167.9136248721011,0.10342203080654144,-0.04309855028986931,0.30849379301071167,-0.9446046352386475
4e895505-d92d-4909-8278-4280a7505d5a,6d292281-5c1f-4061-9898-5217a28356f0,1760433716427192831,0.62561,1.644135,-0.177383,0.011719,-0.583984,0.824219,-1.2387048525710982,-36.27030111367334,-167.92163164104122,0.10332240164279938,-0.042960815131664276,0.3084332346916199,-0.9446415901184082
4e895505-d92d-4909-8278-4280a7505d5a,6d292281-5c1f-4061-9898-5217a28356f0,1760433716435199831,0.379562,1.764297,0.188828,0.024414,-0.585938,0.822266,-1.225727748810603,-36.26516017239789,-167.9282926294305,0.10323357582092285,-0.04283157363533974,0.3084050118923187,-0.9446663856506348
4e895505-d92d-4909-8278-4280a7505d5a,6d292281-5c1f-4061-9898-5217a28356f0,1760433716445906831,0.076294,1.644135,0.368118,0.014648,-0.583496,0.82666,-1.2068387203652486,-36.25816718007833,-167.93966544490868,0.10309036821126938,-0.0426393523812294,0.3083685636520386,-0.9447026252746582
4e895505-d92d-4909-8278-4280a7505d5a,6d292281-5c1f-4061-9898-5217a28356f0,1760433716456613831,-0.534058,2.010345,0.188828,0.013672,-0.587402,0.820801,-1.187297073367258,-36.257919296536144,-167.96478189694633,0.10283076018095016,-0.04241044446825981,0.3083933889865875,-0.9447331428527832
4e895505-d92d-4909-8278-4280a7505d5a,6d292281-5c1f-4061-9898-5217a28356f0,1760433716467320831,-1.022339,2.010345,0.432968,0.028809,-0.601074,0.828125,-1.1707953415192756,-36.265304369501166,-168.00883329203887,0.10242169350385666,-0.042162030935287476,0.30848535895347595,-0.9447586536407471
4e895505-d92d-4909-8278-4280a7505d5a,6d292281-5c1f-4061-9898-5217a28356f0,1760433716477969831,-1.815796,2.193451,-0.120163,0.019531,-0.586914,0.815918,-1.1518161247326673,-36.27808542669332,-168.03362366825948,0.1021636500954628,-0.04194951429963112,0.30861684679985046,-0.944753110408783
4e895505-d92d-4909-8278-4280a7505d5a,6d292281-5c1f-4061-9898-5217a28356f0,1760433716488619831,-1.756668,2.069473,-0.482559,0.013672,-0.587891,0.82373,-1.1324291169248135,-36.29189046043128,-168.0305602585418,0.10213390737771988,-0.04180949553847313,0.30874690413475037,-0.9447200298309326
4e895505-d92d-4909-8278-4280a7505d5a,6d292281-5c1f-4061-9898-5217a28356f0,1760433716499269831,-1.815796,2.010345,-0.79155,0.026367,-0.59082,0.836426,-1.120401556009366,-36.302651346279674,-168.04263060574738,0.10199981182813644,-0.04168682545423508,0.30885079503059387,-0.9447059631347656
4e895505-d92d-4909-8278-4280a7505d5a,6d292281-5c1f-4061-9898-5217a28356f0,1760433716507249831,-1.754761,1.82724,-1.279831,0.015625,-0.599121,0.82373,-1.1014577321781507,-36.32860480390621,-168.0661293105364,0.10174974054098129,-0.04148900508880615,0.309090256690979,-0.9446633458137512
4e895505-d92d-4909-8278-4280a7505d5a,6d292281-5c1f-4061-9898-5217a28356f0,1760433716515230831,-2.059937,1.82724,-1.031876,0.020508,-0.606934,0.841309,-1.0939099790275804,-36.33701781934263,-168.09034014865955,0.10152807831764221,-0.04136849567294121,0.3091751039028168,-0.944664716720581
4e895505-d92d-4909-8278-4280a7505d5a,6d292281-5c1f-4061-9898-5217a28356f0,1760433716523211831,-1.939774,1.764297,-1.703262,0.014648,-0.587402,0.842285,-1.0887695329488698,-36.345213186986534,-168.17034386791903,0.10085299611091614,-0.04111704230308533,0.3092760443687439,-0.9447149634361267
4e895505-d92d-4909-8278-4280a7505d5a,6d292281-5c1f-4061-9898-5217a28356f0,1760433716531192831,-1.813889,1.581192,-1.337051,0.004883,-0.592773,0.833008,-1.0743008849304547,-36.35459324956699,-168.2113380604083,0.10047407448291779,-0.04089485853910446,0.30938079953193665,-0.9447306990623474
4e895505-d92d-4909-8278-4280a7505d5a,6d292281-5c1f-4061-9898-5217a28356f0,1760433716541854831,-1.998901,1.461029,-1.398087,0.019531,-0.608887,0.82373,-1.0659150000567073,-36.370320106644954,-168.25824658158322,0.10006152093410492,-0.040712010115385056,0.30953457951545715,-0.9447320103645325
4e895505-d92d-4909-8278-4280a7505d5a,6d292281-5c1f-4061-9898-5217a28356f0,1760433716552516831,-2.487183,1.155853,-0.84877,0.003418,-0.616211,0.822266,-1.0580535415713317,-36.39223585444951,-168.31541795561282,0.09956452250480652,-0.04051070287823677,0.3097424805164337,-0.9447250366210938
4e895505-d92d-4909-8278-4280a7505d5a,6d292281-5c1f-4061-9898-5217a28356f0,1760433716563178831,-2.548218,1.338959,-1.031876,-0.007324,-0.602051,0.836426,-1.0455884630840997,-36.41122882906735,-168.35911648620998,0.09916673600673676,-0.04030530899763107,0.309925377368927,-0.944715678691864
4e895505-d92d-4909-8278-4280a7505d5a,6d292281-5c1f-4061-9898-5217a28356f0,1760433716573859831,-2.244949,0.787735,-0.425339,0.004395,-0.601562,0.828613,-1.032594213111068,-36.429104826325464,-168.38277646173225,0.09893292933702469,-0.04014874994754791,0.31009238958358765,-0.9446920156478882
4e895505-d92d-4909-8278-4280a7505d5a,6d292281-5c1f-4061-9898-5217a28356f0,1760433716584541831,-2.731323,0.850677,0.127792,-0.00293,-0.602539,0.841309,-1.0177432756667133,-36.44690425202826,-168.34470827941175,0.0992029458284378,-0.04014388844370842,0.31023871898651123,-0.9446158409118652
4e895505-d92d-4909-8278-4280a7505d5a,6d292281-5c1f-4061-9898-5217a28356f0,1760433716595223831,-2.428055,0.787735,0.368118,-0.002441,-0.599609,0.832031,-0.9999504978228081,-36.46697006800709,-168.32901740077386,0.0992799922823906,-0.04005613178014755,0.3104141354560852,-0.9445538520812988
4e895505-d92d-4909-8278-4280a7505d5a,6d292281-5c1f-4061-9898-5217a28356f0,1760433716603229831,-2.061844,0.909805,0.616074,0.003906,-0.617188,0.828125,-0.9570622039897316,-36.513635135929725,-168.34997028101236,0.09898136556148529,-0.03968403488397598,0.3108433783054352,-0.9444597363471985
4e895505-d92d-4909-8278-4280a7505d5a,6d292281-5c1f-4061-9898-5217a28356f0,1760433716611236831,-1.998901,0.728607,1.226425,-0.003906,-0.611328,0.817871,-0.9329885225166639,-36.53242077519742,-168.34265988868881,0.09897235780954361,-0.03952084481716156,0.3110165596008301,-0.944410502910614
4e895505-d92d-4909-8278-4280a7505d5a,6d292281-5c1f-4061-9898-5217a28356f0,1760433716619243831,-2.059937,0.728607,1.28746,-0.001953,-0.606934,0.827637,-0.9099823488512575,-36.5512494949882,-168.36020421485503,0.09876132756471634,-0.03929902985692024,0.3111976981163025,-0.9443821907043457
4e895505-d92d-4909-8278-4280a7505d5a,6d292281-5c1f-4061-9898-5217a28356f0,1760433716627250831,-1.754761,0.850677,1.470566,0.001953,-0.618652,0.808594,-0.8861221380079197,-36.57288242532769,-168.3802887604651,0.09852638840675354,-0.03906553238630295,0.3114034831523895,-0.9443485736846924
4e895505-d92d-4909-8278-4280a7505d5a,6d292281-5c1f-4061-9898-5217a28356f0,1760433716635356831,-1.756668,0.909805,1.592636,-0.004395,-0.61377,0.82666,-0.8607948636503361,-36.59100100281167,-168.4015699846732,0.09827828407287598,-0.038813769817352295,0.3115818500518799,-0.9443259835243225
4e895505-d92d-4909-8278-4280a7505d5a,6d292281-5c1f-4061-9898-5217a28356f0,1760433716643462831,-1.327515,0.850677,1.344681,-0.007812,-0.617676,0.825684,-0.8359108104533742,-36.6069528314135,-168.37913738310175,0.09839201718568802,-0.03868276625871658,0.3117271363735199,-0.9442715644836426
4e895505-d92d-4909-8278-4280a7505d5a,6d292281-5c1f-4061-9898-5217a28356f0,1760433716651568831,-1.144409,0.667572,1.527786,-0.009277,-0.605469,0.819336,-0.8095944898397349,-36.620945036024466,-168.3585450865705,0.09848703444004059,-0.03853341564536095,0.3118581473827362,-0.9442245364189148
4e895505-d92d-4909-8278-4280a7505d5a,6d292281-5c1f-4061-9898-5217a28356f0,1760433716659674831,-1.390457,0.60463,1.832962,-0.01416,-0.629395,0.813477,-0.7828886326793066,-36.64097150564896,-168.3456469412432,0.09851618856191635,-0.03836493939161301,0.31204187870025635,-0.9441676139831543
4e895505-d92d-4909-8278-4280a7505d5a,6d292281-5c1f-4061-9898-5217a28356f0,1760433716670186831,-1.508713,0.421524,1.832962,-0.004883,-0.617188,0.828613,-0.7570183783276482,-36.65247004616989,-168.28241706181194,0.09896411001682281,-0.038333483040332794,0.31213778257369995,-0.9440903663635254
4e895505-d92d-4909-8278-4280a7505d5a,6d292281-5c1f-4061-9898-5217a28356f0,1760433716680698831,-1.38855,0.240326,2.016068,-0.00293,-0.611816,0.814453,-0.7316420821022221,-36.665435622280654,-168.23345476341692,0.09929540008306503,-0.038268569856882095,0.3122502267360687,-0.9440210461616516
4e895505-d92d-4909-8278-4280a7505d5a,6d292281-5c1f-4061-9898-5217a28356f0,1760433716691210831,-1.756668,0.421524,2.264023,-0.002441,-0.615234,0.813965,-0.7058602491755828,-36.682311662073246,-168.21055630032828,0.09940988570451736,-0.038132648915052414,0.3124040365219116,-0.9439635872840881
4e895505-d92d-4909-8278-4280a7505d5a,6d292281-5c1f-4061-9898-5217a28356f0,1760433716701876831,-1.998901,-0.003815,2.447128,0.0,-0.61377,0.834961,-0.6847640365004724,-36.69651677493764,-168.18353564088824,0.09957163780927658,-0.038044411689043045,0.31253042817115784,-0.9439082741737366
4e895505-d92d-4909-8278-4280a7505d5a,6d292281-5c1f-4061-9898-5217a28356f0,1760433716712541831,-1.939774,-0.188828,2.080917,0.011719,-0.62207,0.829102,-0.6691781615946214,-36.71376667381912,-168.1514893798827,0.09978903830051422,-0.03801790624856949,0.31267550587654114,-0.9438382983207703
4e895505-d92d-4909-8278-4280a7505d5a,6d292281-5c1f-4061-9898-5217a28356f0,1760433716723206831,-1.815796,0.05722,1.16539,0.021973,-0.608887,0.830566,-0.6592420936237474,-36.726064763174826,-168.17146445089807,0.09959449619054794,-0.03789186105132103,0.3127920925617218,-0.9438253045082092
4e895505-d92d-4909-8278-4280a7505d5a,6d292281-5c1f-4061-9898-5217a28356f0,1760433716733881831,-1.815796,-0.125885,0.677109,0.021973,-0.642578,0.835938,-0.670790652844815,-36.75498723894696,-168.22339102849014,0.09919155389070511,-0.037869349122047424,0.31303754448890686,-0.9437872767448425
4e895505-d92d-4909-8278-4280a7505d5a,6d292281-5c1f-4061-9898-5217a28356f0,1760433716744556831,-1.144409,-0.492096,-0.055313,0.026855,-0.623047,0.856934,-0.6817434714072808,-36.74937721606968,-168.2156383382128,0.09928663820028305,-0.037976060062646866,0.3129792809486389,-0.9437922835350037
4e895505-d92d-4909-8278-4280a7505d5a,6d292281-5c1f-4061-9898-5217a28356f0,1760433716755231831,-0.780106,-0.555038,-0.84877,0.026855,-0.623535,0.851074,-0.6916966482571705,-36.74755964746761,-168.22524556937307,0.09923511743545532,-0.03803028166294098,0.31295886635780334,-0.9438022971153259
4e895505-d92d-4909-8278-4280a7505d5a,6d292281-5c1f-4061-9898-5217a28356f0,1760433716763234831,-0.108719,-0.860214,-1.703262,0.035156,-0.624023,0.845215,-0.7251857111302176,-36.73974867179619,-168.2911116701443,0.09878586232662201,-0.03811976686120033,0.3128874599933624,-0.9438694715499878
4e895505-d92d-4909-8278-4280a7505d5a,6d292281-5c1f-4061-9898-5217a28356f0,1760433716771237831,0.62561,-0.370026,-2.923965,0.038086,-0.618164,0.844727,-0.7612589812082572,-36.731314978923585,-168.3439699655149,0.09845085442066193,-0.03826563432812691,0.31280452013015747,-0.9439260959625244
4e895505-d92d-4909-8278-4280a7505d5a,6d292281-5c1f-4061-9898-5217a28356f0,1760433716779240831,0.747681,-0.30899,-3.595352,0.032227,-0.628418,0.853027,-0.7989652807609626,-36.72098444637639,-168.3655051487304,0.09837867319583893,-0.038508977741003036,0.3126942217350006,-0.9439602494239807
4e895505-d92d-4909-8278-4280a7505d5a,6d292281-5c1f-4061-9898-5217a28356f0,1760433716787243831,1.235962,0.301361,-4.6978,0.026367,-0.618164,0.831543,-0.8323952352106683,-36.70654911701197,-168.4307859640985,0.0979352593421936,-0.03859446942806244,0.3125685751438141,-0.9440444707870483
4e895505-d92d-4909-8278-4280a7505d5a,6d292281-5c1f-4061-9898-5217a28356f0,1760433716797898831,1.173019,0.665665,-5.060196,0.019043,-0.61377,0.838379,-0.8630084703712649,-36.68995950945026,-168.5116504667901,0.09735608100891113,-0.038612693548202515,0.3124329745769501,-0.9441485404968262
4e895505-d92d-4909-8278-4280a7505d5a,6d292281-5c1f-4061-9898-5217a28356f0,1760433716808553831,1.358032,0.850677,-5.548477,0.006348,-0.625488,0.834473,-0.8930763792384879,-36.67645743279817,-168.6077317169665,0.09664920717477798,-0.03858765959739685,0.312328577041626,-0.9442567229270935
4e895505-d92d-4909-8278-4280a7505d5a,6d292281-5c1f-4061-9898-5217a28356f0,1760433716819208831,1.661301,1.153946,-5.369186,0.0,-0.619629,0.818848,-0.9106210720654208,-36.66280799639283,-168.684997493364,0.09606312215328217,-0.03851078823208809,0.3122272789478302,-0.9443531632423401
4e895505-d92d-4909-8278-4280a7505d5a,6d292281-5c1f-4061-9898-5217a28356f0,1760433716827357831,2.090454,1.277924,-4.392624,0.001953,-0.611816,0.833984,-0.9261478162221786,-36.64196252258649,-168.763127316952,0.095465749502182,-0.03840941935777664,0.3120686411857605,-0.9444702863693237
4e895505-d92d-4909-8278-4280a7505d5a,6d292281-5c1f-4061-9898-5217a28356f0,1760433716835507831,2.332687,1.092911,-3.778458,-0.012695,-0.615234,0.824219,-0.9318152504887012,-36.62218946242571,-168.83901088270315,0.09485967457294464,-0.038233980536460876,0.3119262456893921,-0.9445855021476746
4e895505-d92d-4909-8278-4280a7505d5a,6d292281-5c1f-4061-9898-5217a28356f0,1760433716843657831,2.27356,0.850677,-2.985001,-0.029297,-0.620117,0.832519,-0.9260035344759006,-36.59872395917362,-168.88211195544798,0.09449322521686554,-0.03805042803287506,0.3117518424987793,-0.9446872472763062
4e895505-d92d-4909-8278-4280a7505d5a,6d292281-5c1f-4061-9898-5217a28356f0,1760433716851807831,2.090454,1.033783,-2.130508,-0.020996,-0.61084,0.828125,-0.919966906241978,-36.57823306938916,-168.8847807168538,0.09445888549089432,-0.03797741234302521,0.31158870458602905,-0.9447473883628845
4e895505-d92d-4909-8278-4280a7505d5a,6d292281-5c1f-4061-9898-5217a28356f0,1760433716862270831,2.332687,1.153946,-1.825333,-0.016113,-0.608887,0.825684,-0.9069497035522497,-36.55541082776124,-168.92925728973518,0.09406132996082306,-0.03773139789700508,0.3114258348941803,-0.9448506236076355
4e895505-d92d-4909-8278-4280a7505d5a,6d292281-5c1f-4061-9898-5217a28356f0,1760433716872733831,2.212524,1.644135,-1.031876,-0.013184,-0.598145,0.831055,-0.8935824559185888,-36.53063203369298,-168.96286147677492,0.09375283867120743,-0.03751062601804733,0.3112433850765228,-0.9449502229690552
4e895505-d92d-4909-8278-4280a7505d5a,6d292281-5c1f-4061-9898-5217a28356f0,1760433716883196831,2.39563,1.461029,-0.7267,-0.010742,-0.593262,0.824707,-0.8716746976210713,-36.50262153904811,-168.96679259555054,0.09366652369499207,-0.037297558039426804,0.3110314905643463,-0.9450369477272034
4e895505-d92d-4909-8278-4280a7505d5a,6d292281-5c1f-4061-9898-5217a28356f0,1760433716893947831,2.761841,1.094818,0.005722,-0.020508,-0.600098,0.806152,-0.8183329032586711,-36.4473897518944,-169.0005737832553,0.09325432777404785,-0.03672313690185547,0.3106301426887512,-0.9452322125434875
4e895505-d92d-4909-8278-4280a7505d5a,6d292281-5c1f-4061-9898-5217a28356f0,1760433716904698831,1.844406,0.421524,0.551224,-0.016113,-0.604492,0.816895,-0.8025791202239754,-36.43169082805643,-169.01243765611792,0.09311695396900177,-0.03654886782169342,0.31051719188690186,-0.9452896118164062
4e895505-d92d-4909-8278-4280a7505d5a,6d292281-5c1f-4061-9898-5217a28356f0,1760433716915449831,1.419067,0.05722,0.494003,-0.010742,-0.59668,0.820312,-0.7904590493637724,-36.42364869720239,-169.03322848870013,0.09291423857212067,-0.03638632595539093,0.31046727299690247,-0.9453322291374207
4e895505-d92d-4909-8278-4280a7505d5a,6d292281-5c1f-4061-9898-5217a28356f0,1760433716926048831,0.38147,-1.102448,0.799179,0.006348,-0.600098,0.817871,-0.7895827220776183,-36.41646171741418,-169.06513546305894,0.09265010058879852,-0.036287106573581696,0.3104187846183777,-0.9453778862953186
4e895505-d92d-4909-8278-4280a7505d5a,6d292281-5c1f-4061-9898-5217a28356f0,1760433716936648831,-0.597,-2.019882,0.616074,0.004883,-0.597656,0.812012,-0.7928647656482539,-36.41691377076283,-169.07836789909967,0.09254973381757736,-0.03627868741750717,0.3104240596294403,-0.9453862905502319
4e895505-d92d-4909-8278-4280a7505d5a,6d292281-5c1f-4061-9898-5217a28356f0,1760433716947248831,-1.327515,-2.384186,0.368118,0.004883,-0.611328,0.814941,-0.8070062354273497,-36.424799510288906,-169.0647255807684,0.09269899874925613,-0.036438386887311935,0.31047338247299194,-0.9453493356704712
4e895505-d92d-4909-8278-4280a7505d5a,6d292281-5c1f-4061-9898-5217a28356f0,1760433716957876831,-1.327515,-3.238678,0.310898,0.008789,-0.620117,0.825195,-0.851667151998492,-36.449699194659054,-169.01358853199042,0.09323687106370926,-0.03696461021900177,0.3106262683868408,-0.9452257752418518
4e895505-d92d-4909-8278-4280a7505d5a,6d292281-5c1f-4061-9898-5217a28356f0,1760433716968503831,-1.693726,-3.055573,-0.177383,0.003906,-0.605469,0.84375,-0.8771187002185602,-36.45634434137113,-169.02303689577704,0.0932266116142273,-0.037154071033000946,0.31066346168518066,-0.9452071189880371
4e895505-d92d-4909-8278-4280a7505d5a,6d292281-5c1f-4061-9898-5217a28356f0,1760433716979130831,-1.022339,-3.238678,-0.425339,-0.003418,-0.605469,0.849609,-0.8967433297790248,-36.455408665909424,-169.02259349736053,0.09328365325927734,-0.037316422909498215,0.3106396198272705,-0.9452029466629028
4e895505-d92d-4909-8278-4280a7505d5a,6d292281-5c1f-4061-9898-5217a28356f0,1760433716987143831,0.62561,-2.384186,0.005722,-0.006836,-0.603027,0.867676,-0.907935220863803,-36.44629437386226,-169.0303318772403,0.09325194358825684,-0.03738073632121086,0.3105578124523163,-0.9452304244041443
