section id,recording id,timestamp [ns],gyro x [deg/s],gyro y [deg/s],gyro z [deg/s],acceleration x [g],acceleration y [g],acceleration z [g],roll [deg],pitch [deg],yaw [deg],quaternion w,quaternion x,quaternion y,quaternion z
04216434-9060-4566-a194-13ca982e27d0,7c474fe1-0c6f-4be3-b831-2fab4af32130,1759226809649095287,-1.850128,2.044678,-1.150131,0.018555,-0.501465,0.905273,1.2436872316069043,-28.827231567985777,-170.15331017777214,0.08042510598897934,-0.01088921818882227,0.24888929724693298,-0.9651250243186951
04216434-9060-4566-a194-13ca982e27d0,7c474fe1-0c6f-4be3-b831-2fab4af32130,1759226809659742287,-1.667023,1.678467,-2.191544,0.004395,-0.497559,0.894043,1.2360090574660565,-28.840874987742172,-170.2180579179249,0.07989267259836197,-0.010823400691151619,0.24900490045547485,-0.9651402235031128
04216434-9060-4566-a194-13ca982e27d0,7c474fe1-0c6f-4be3-b831-2fab4af32130,1759226809670389287,-1.850128,1.678467,-2.737045,-0.001953,-0.503418,0.904297,1.2300020710238457,-28.85541212617761,-170.26431221767416,0.07951214909553528,-0.010784247890114784,0.24912746250629425,-0.9651404619216919
04216434-9060-4566-a194-13ca982e27d0,7c474fe1-0c6f-4be3-b831-2fab4af32130,1759226809678547287,-1.789093,2.044678,-3.408432,-0.004395,-0.497559,0.901367,1.2220687632548988,-28.872503221644642,-170.29613156618433,0.07925671339035034,-0.010794496163725853,0.24926882982254028,-0.9651249051094055
04216434-9060-4566-a194-13ca982e27d0,7c474fe1-0c6f-4be3-b831-2fab4af32130,1759226809686706287,-1.850128,1.922607,-4.018784,-0.007324,-0.493164,0.896484,1.2150978877091085,-28.890879550027122,-170.30483618732632,0.07919354736804962,-0.010847821831703186,0.24941954016685486,-0.9650905132293701
04216434-9060-4566-a194-13ca982e27d0,7c474fe1-0c6f-4be3-b831-2fab4af32130,1759226809694865287,-1.972198,2.288818,-4.449844,-0.016113,-0.489746,0.892578,1.2106393866753302,-28.905598078055444,-170.3648288502313,0.07869397848844528,-0.010765571147203445,0.24954602122306824,-0.9650996327400208
04216434-9060-4566-a194-13ca982e27d0,7c474fe1-0c6f-4be3-b831-2fab4af32130,1759226809703024287,-2.46048,2.471924,-4.5681,-0.024414,-0.494141,0.895508,1.207715142967648,-28.928159861655185,-170.40931761797034,0.07831953465938568,-0.010709762573242188,0.24973809719085693,-0.9650810956954956
04216434-9060-4566-a194-13ca982e27d0,7c474fe1-0c6f-4be3-b831-2fab4af32130,1759226809712495287,-2.887726,2.532959,-4.327774,-0.022949,-0.488281,0.883789,1.211349600489073,-28.9714052427336,-170.49696208583728,0.07756178826093674,-0.010519393719732761,0.25011271238327026,-0.9650474190711975
04216434-9060-4566-a194-13ca982e27d0,7c474fe1-0c6f-4be3-b831-2fab4af32130,1759226809721966287,-2.46048,2.593994,-3.835678,-0.019531,-0.492188,0.890137,1.217772097590024,-28.996143063289615,-170.5796796760549,0.0768444761633873,-0.010302483104169369,0.250332772731781,-0.9650501608848572
04216434-9060-4566-a194-13ca982e27d0,7c474fe1-0c6f-4be3-b831-2fab4af32130,1759226809731437287,-2.767563,2.592087,-3.656387,-0.031738,-0.499023,0.897949,1.2292149716916412,-29.019869135610683,-170.61500733403187,0.0765155702829361,-0.010145886801183224,0.2505432963371277,-0.9650233387947083
04216434-9060-4566-a194-13ca982e27d0,7c474fe1-0c6f-4be3-b831-2fab4af32130,1759226809740908287,-2.70462,2.655029,-3.286362,-0.02832,-0.503906,0.903809,1.2461524895899432,-29.04540586619892,-170.6465420322803,0.07620607316493988,-0.009952490217983723,0.25077229738235474,-0.9649903774261475
04216434-9060-4566-a194-13ca982e27d0,7c474fe1-0c6f-4be3-b831-2fab4af32130,1759226809750379287,-2.46048,2.471924,-2.191544,-0.035645,-0.501953,0.902832,1.2661989033698378,-29.067380595392727,-170.681427786818,0.07586246728897095,-0.009722934104502201,0.25097355246543884,-0.9649674892425537
04216434-9060-4566-a194-13ca982e27d0,7c474fe1-0c6f-4be3-b831-2fab4af32130,1759226809760110287,-2.401352,2.103806,-1.825333,-0.046387,-0.499023,0.90918,1.292356831100957,-29.086673762056197,-170.70619699606252,0.07559133321046829,-0.009462079964578152,0.251155287027359,-0.9649441242218018
04216434-9060-4566-a194-13ca982e27d0,7c474fe1-0c6f-4be3-b831-2fab4af32130,1759226809769841287,-2.096176,2.408981,-1.031876,-0.053711,-0.490723,0.901855,1.322052609893759,-29.103366825138895,-170.7107192045985,0.07548357546329498,-0.009213939309120178,0.251315712928772,-0.9649132490158081
04216434-9060-4566-a194-13ca982e27d0,7c474fe1-0c6f-4be3-b831-2fab4af32130,1759226809779572287,-1.667023,1.983643,-0.360489,-0.05127,-0.489746,0.900879,1.3510168704690382,-29.115970915767544,-170.69272549091647,0.0755680724978447,-0.00901847518980503,0.2514394521713257,-0.9648762345314026
04216434-9060-4566-a194-13ca982e27d0,7c474fe1-0c6f-4be3-b831-2fab4af32130,1759226809789303287,-1.239777,1.678467,0.192642,-0.041504,-0.497559,0.911621,1.377575561064948,-29.12264937451193,-170.70462410339644,0.07540774345397949,-0.008773483335971832,0.2515140771865845,-0.9648715853691101
04216434-9060-4566-a194-13ca982e27d0,7c474fe1-0c6f-4be3-b831-2fab4af32130,1759226809799034287,-0.812531,1.190186,1.169205,-0.063477,-0.494141,0.912598,1.4112142194660788,-29.123390458171507,-170.7080764496194,0.07530462741851807,-0.008483188226819038,0.25154268741607666,-0.964874804019928
04216434-9060-4566-a194-13ca982e27d0,7c474fe1-0c6f-4be3-b831-2fab4af32130,1759226809808515287,-0.322342,1.249313,1.962662,-0.062988,-0.47998,0.899414,1.4471404470553615,-29.124169810880474,-170.68325680175877,0.07543452084064484,-0.008235725574195385,0.25157105922698975,-0.9648594260215759
04216434-9060-4566-a194-13ca982e27d0,7c474fe1-0c6f-4be3-b831-2fab4af32130,1759226809817997287,-0.019073,0.518799,2.695084,-0.061523,-0.481445,0.910644,1.4795159107151246,-29.115196141366756,-170.6483166904601,0.07566021382808685,-0.008033405058085918,0.25151440501213074,-0.9648582339286804
04216434-9060-4566-a194-13ca982e27d0,7c474fe1-0c6f-4be3-b831-2fab4af32130,1759226809827479287,-0.448227,0.398636,3.427505,-0.044434,-0.484375,0.90918,1.5178261560368147,-29.11077681466085,-170.60365351223993,0.07595346868038177,-0.007805688306689262,0.2514994740486145,-0.9648409485816956
04216434-9060-4566-a194-13ca982e27d0,7c474fe1-0c6f-4be3-b831-2fab4af32130,1759226809836961287,-0.019073,0.213623,4.159927,-0.057129,-0.485352,0.90332,1.5481033819285932,-29.10321563203176,-170.57844709083182,0.07610146701335907,-0.0076006148010492325,0.25145423412323,-0.9648427367210388
04216434-9060-4566-a194-13ca982e27d0,7c474fe1-0c6f-4be3-b831-2fab4af32130,1759226809846443287,-0.080109,0.030518,4.770279,-0.051758,-0.482422,0.886719,1.5818328563151893,-29.0967525766079,-170.5464544158368,0.07629874348640442,-0.007382139563560486,0.25142019987106323,-0.9648376703262329
04216434-9060-4566-a194-13ca982e27d0,7c474fe1-0c6f-4be3-b831-2fab4af32130,1759226809854436287,-0.324249,-0.579834,5.319595,-0.055664,-0.485352,0.898437,1.613708277392357,-29.09260341307735,-170.5073775834547,0.07655905932188034,-0.007196465507149696,0.2514040470123291,-0.9648227095603943
04216434-9060-4566-a194-13ca982e27d0,7c474fe1-0c6f-4be3-b831-2fab4af32130,1759226809862429287,-0.507355,-0.823975,6.052017,-0.044922,-0.48584,0.893066,1.6452805880390504,-29.087307875936048,-170.477340068489,0.07674429565668106,-0.006992662325501442,0.25137874484062195,-0.9648160934448242
04216434-9060-4566-a194-13ca982e27d0,7c474fe1-0c6f-4be3-b831-2fab4af32130,1759226809870422287,-0.385284,-1.251221,6.418228,-0.030273,-0.48584,0.900879,1.6744524210348812,-29.08667683106421,-170.44451454449523,0.0769568681716919,-0.006818598136305809,0.2513910233974457,-0.9647971987724304
04216434-9060-4566-a194-13ca982e27d0,7c474fe1-0c6f-4be3-b831-2fab4af32130,1759226809878415287,-1.119614,-1.554489,6.479263,-0.015137,-0.484863,0.889648,1.6945216361772593,-29.08773799699513,-170.3575483197319,0.0776446983218193,-0.006841209717094898,0.25140830874443054,-0.9647374153137207
04216434-9060-4566-a194-13ca982e27d0,7c474fe1-0c6f-4be3-b831-2fab4af32130,1759226809889067287,-1.667023,-1.678467,6.84166,-0.021484,-0.49707,0.876953,1.7101247833788527,-29.097464007550588,-170.28201159212844,0.07824335992336273,-0.006882852874696255,0.25149622559547424,-0.9646658301353455
04216434-9060-4566-a194-13ca982e27d0,7c474fe1-0c6f-4be3-b831-2fab4af32130,1759226809899719287,-1.850128,-1.678467,6.723404,-0.013672,-0.498047,0.885254,1.7270616107222403,-29.114312419579928,-170.23646716516495,0.07858430594205856,-0.006852896884083748,0.25164681673049927,-0.964599072933197
04216434-9060-4566-a194-13ca982e27d0,7c474fe1-0c6f-4be3-b831-2fab4af32130,1759226809910371287,-2.399445,-1.617432,6.113052,0.005371,-0.49707,0.879883,1.7386762945658523,-29.130853455405585,-170.18090735752088,0.07902126014232635,-0.006889646872878075,0.2517906129360199,-0.964525580406189
04216434-9060-4566-a194-13ca982e27d0,7c474fe1-0c6f-4be3-b831-2fab4af32130,1759226809921059287,-3.131866,-1.556396,4.888535,-0.003418,-0.508301,0.892578,1.7436226790407572,-29.18000180074737,-170.10398872539156,0.07964219897985458,-0.007054457440972328,0.25220271944999695,-0.9643656611442566
04216434-9060-4566-a194-13ca982e27d0,7c474fe1-0c6f-4be3-b831-2fab4af32130,1759226809931746287,-3.437042,-1.495361,4.953384,-0.009766,-0.488281,0.901367,1.7461716211771374,-29.203798811879224,-170.10218442645788,0.07964421063661575,-0.007055109366774559,0.25240451097488403,-0.9643126726150513
04216434-9060-4566-a194-13ca982e27d0,7c474fe1-0c6f-4be3-b831-2fab4af32130,1759226809942433287,-3.559113,-0.762939,4.343033,-0.00293,-0.508301,0.885742,1.7475263770446754,-29.236429622971233,-170.11113758064644,0.07955550402402878,-0.00704882200807333,0.25268039107322693,-0.9642478227615356
04216434-9060-4566-a194-13ca982e27d0,7c474fe1-0c6f-4be3-b831-2fab4af32130,1759226809950436287,-4.169464,-0.457764,3.305435,-0.004395,-0.508789,0.89209,1.7435331711807316,-29.272313434179857,-170.0925943416334,0.07970892637968063,-0.007150676101446152,0.25297820568084717,-0.9641562700271606
04216434-9060-4566-a194-13ca982e27d0,7c474fe1-0c6f-4be3-b831-2fab4af32130,1759226809958441287,-4.171371,-0.21553,2.511978,0.005859,-0.505859,0.890137,1.7377118356417616,-29.308082957730758,-170.086426779059,0.0797622874379158,-0.007240552455186844,0.25327450037002563,-0.9640734195709229
04216434-9060-4566-a194-13ca982e27d0,7c474fe1-0c6f-4be3-b831-2fab4af32130,1759226809966446287,-4.291534,0.457764,1.718521,-0.00293,-0.501953,0.896973,1.7348572861252152,-29.35024116934876,-170.09824287532652,0.07965578138828278,-0.007270569913089275,0.2536276876926422,-0.9639891386032104
04216434-9060-4566-a194-13ca982e27d0,7c474fe1-0c6f-4be3-b831-2fab4af32130,1759226809974451287,-4.108429,0.823975,0.680923,0.009277,-0.508301,0.898437,1.7361117350079738,-29.38801724229563,-170.04118543267643,0.08012092113494873,-0.007415242493152618,0.25394245982170105,-0.9638665914535522
04216434-9060-4566-a194-13ca982e27d0,7c474fe1-0c6f-4be3-b831-2fab4af32130,1759226809985148287,-3.923416,1.554489,-0.173569,-0.005859,-0.517578,0.897461,1.7343639289807633,-29.42609214381431,-170.00869995750585,0.08038584887981415,-0.007531188428401947,0.2542591392993927,-0.9637601375579834
04216434-9060-4566-a194-13ca982e27d0,7c474fe1-0c6f-4be3-b831-2fab4af32130,1759226809995845287,-3.923416,1.737595,-1.214981,-0.005859,-0.520996,0.914062,1.736132075341399,-29.462500549592452,-170.0156964218945,0.08031141757965088,-0.00752874743193388,0.25456681847572327,-0.963685154914856
04216434-9060-4566-a194-13ca982e27d0,7c474fe1-0c6f-4be3-b831-2fab4af32130,1759226810006542287,-3.498077,2.288818,-1.825333,-0.01709,-0.522461,0.901855,1.7344737539972297,-29.49706223126673,-170.04297065021984,0.08007467538118362,-0.007508573122322559,0.2548578977584839,-0.9636280536651611
04216434-9060-4566-a194-13ca982e27d0,7c474fe1-0c6f-4be3-b831-2fab4af32130,1759226810017179287,-2.521515,2.532959,-3.225327,-0.012207,-0.519531,0.904785,1.7387709875000819,-29.55298906179719,-170.12326538812775,0.07937204092741013,-0.00733635388314724,0.25533604621887207,-0.963560938835144
04216434-9060-4566-a194-13ca982e27d0,7c474fe1-0c6f-4be3-b831-2fab4af32130,1759226810027817287,-1.972198,2.471924,-3.774643,-0.013672,-0.516602,0.900879,1.7367426517313527,-29.571420362482215,-170.1740256120669,0.07894386351108551,-0.007254239171743393,0.2554927468299866,-0.9635552167892456
04216434-9060-4566-a194-13ca982e27d0,7c474fe1-0c6f-4be3-b831-2fab4af32130,1759226810038455287,-1.728058,2.7771,-4.938126,-0.02002,-0.51123,0.893066,1.735143822390073,-29.590901423814074,-170.23047990110308,0.07846654206514359,-0.007156462408602238,0.255658894777298,-0.963550865650177
04216434-9060-4566-a194-13ca982e27d0,7c474fe1-0c6f-4be3-b831-2fab4af32130,1759226810049110287,-1.544952,2.655029,-4.938126,-0.021484,-0.508301,0.898926,1.731850972199138,-29.605171075722104,-170.26414945747575,0.07818625867366791,-0.007119724527001381,0.25577864050865173,-0.9635421633720398
04216434-9060-4566-a194-13ca982e27d0,7c474fe1-0c6f-4be3-b831-2fab4af32130,1759226810059766287,-1.119614,2.225876,-5.121231,-0.03125,-0.508301,0.890137,1.7250386648938814,-29.61940374320643,-170.32279341638164,0.07770396769046783,-0.00705683883279562,0.25589752197265625,-0.963549017906189
04216434-9060-4566-a194-13ca982e27d0,7c474fe1-0c6f-4be3-b831-2fab4af32130,1759226810070422287,-1.119614,2.351761,-5.239487,-0.040527,-0.510254,0.885254,1.7217193586120347,-29.632288115502494,-170.4180097999548,0.07690665125846863,-0.006881574168801308,0.25600922107696533,-0.9635850191116333
04216434-9060-4566-a194-13ca982e27d0,7c474fe1-0c6f-4be3-b831-2fab4af32130,1759226810081092287,-0.995636,1.617432,-5.121231,-0.029785,-0.512207,0.888184,1.70793984410933,-29.659853079411363,-170.4727272161891,0.07646872848272324,-0.006895397789776325,0.2562348544597626,-0.9635600447654724
04216434-9060-4566-a194-13ca982e27d0,7c474fe1-0c6f-4be3-b831-2fab4af32130,1759226810091765287,-0.995636,1.617432,-4.873276,-0.02832,-0.518066,0.885254,1.7012510492530646,-29.671641237469938,-170.5597214183684,0.0757485032081604,-0.006765666417777538,0.2563346028327942,-0.9635915160179138
04216434-9060-4566-a194-13ca982e27d0,7c474fe1-0c6f-4be3-b831-2fab4af32130,1759226810102438287,-1.119614,1.066208,-4.63295,-0.036621,-0.508789,0.883789,1.6937459924606237,-29.68516258549084,-170.64278056931212,0.07506267726421356,-0.006652711890637875,0.2564481198787689,-0.963615894317627
04216434-9060-4566-a194-13ca982e27d0,7c474fe1-0c6f-4be3-b831-2fab4af32130,1759226810110431287,-1.298904,1.066208,-3.961563,-0.050781,-0.512207,0.902832,1.6906614775171138,-29.699513720939116,-170.70429800401834,0.07454787939786911,-0.006551256403326988,0.2565702497959137,-0.9636240601539612
04216434-9060-4566-a194-13ca982e27d0,7c474fe1-0c6f-4be3-b831-2fab4af32130,1759226810118424287,-1.239777,0.701904,-3.713608,-0.042969,-0.523438,0.896484,1.6895240727537435,-29.710097485764933,-170.75279828179544,0.07413934916257858,-0.0064597707241773605,0.25666120648384094,-0.9636319875717163
04216434-9060-4566-a194-13ca982e27d0,7c474fe1-0c6f-4be3-b831-2fab4af32130,1759226810126417287,-1.178741,0.762939,-3.225327,-0.041504,-0.510742,0.895508,1.6884211671513452,-29.726109896889938,-170.79230863670745,0.07380471378564835,-0.00639193132519722,0.25679731369018555,-0.9636217355728149
04216434-9060-4566-a194-13ca982e27d0,7c474fe1-0c6f-4be3-b831-2fab4af32130,1759226810134410287,-1.422882,0.518799,-2.496719,-0.040039,-0.510254,0.883301,1.686416047743286,-29.739747094585034,-170.82217300119862,0.07355394959449768,-0.006351529620587826,0.25691232085227966,-0.9636104106903076
04216434-9060-4566-a194-13ca982e27d0,7c474fe1-0c6f-4be3-b831-2fab4af32130,1759226810145087287,-1.119614,0.398636,-2.008438,-0.045898,-0.520996,0.879394,1.684301567930911,-29.752456713329604,-170.86147731406976,0.07322435081005096,-0.00629016850143671,0.2570199966430664,-0.9636070132255554
04216434-9060-4566-a194-13ca982e27d0,7c474fe1-0c6f-4be3-b831-2fab4af32130,1759226810155764287,-1.422882,0.335693,-1.394272,-0.03125,-0.513672,0.894043,1.687855296136418,-29.767753181164103,-170.89487804739787,0.07293091714382172,-0.006196142174303532,0.2571527063846588,-0.9635941982269287
04216434-9060-4566-a194-13ca982e27d0,7c474fe1-0c6f-4be3-b831-2fab4af32130,1759226810166441287,-1.056671,-0.823975,-0.78392,-0.041504,-0.51416,0.880371,1.683842915584228,-29.777779420132166,-170.94222629815468,0.07253877818584442,-0.006130668334662914,0.257237046957016,-0.9636014103889465
04216434-9060-4566-a194-13ca982e27d0,7c474fe1-0c6f-4be3-b831-2fab4af32130,1759226810177107287,-0.995636,-1.00708,0.616074,-0.038574,-0.514648,0.900879,1.688887135773657,-29.792665049252342,-170.96304199825008,0.07234784960746765,-0.006051785312592983,0.2573661506175995,-0.9635828137397766
04216434-9060-4566-a194-13ca982e27d0,7c474fe1-0c6f-4be3-b831-2fab4af32130,1759226810187772287,-0.873566,-1.190186,0.986099,-0.052246,-0.521484,0.893555,1.6945593265664682,-29.80526948676643,-170.96901944069992,0.07228105515241623,-0.005999450571835041,0.25747597217559814,-0.9635587930679321
04216434-9060-4566-a194-13ca982e27d0,7c474fe1-0c6f-4be3-b831-2fab4af32130,1759226810198437287,-0.69046,-1.678467,1.23024,-0.030273,-0.525879,0.901367,1.690630043462367,-29.814163266132468,-170.96686913513417,0.07230529189109802,-0.006043523550033569,0.25754812359809875,-0.9635373950004578
04216434-9060-4566-a194-13ca982e27d0,7c474fe1-0c6f-4be3-b831-2fab4af32130,1759226810206627287,-0.69046,-1.434326,1.657486,-0.034668,-0.51416,0.900391,1.6912073867976611,-29.819862281615844,-170.9439264369745,0.07249518483877182,-0.006094210781157017,0.25759515166282654,-0.963510274887085
04216434-9060-4566-a194-13ca982e27d0,7c474fe1-0c6f-4be3-b831-2fab4af32130,1759226810214817287,-0.507355,-1.068115,1.592636,-0.021484,-0.514648,0.891602,1.6910862920638148,-29.82428126064705,-170.93846732294463,0.0725400298833847,-0.006110594607889652,0.25763192772865295,-0.9634969234466553
04216434-9060-4566-a194-13ca982e27d0,7c474fe1-0c6f-4be3-b831-2fab4af32130,1759226810223007287,-0.44632,-0.946045,1.657486,-0.027832,-0.512695,0.895996,1.6837335041432717,-29.82881241653586,-170.93849055247225,0.07255499809980392,-0.006175527349114418,0.25766533613204956,-0.9634864926338196
04216434-9060-4566-a194-13ca982e27d0,7c474fe1-0c6f-4be3-b831-2fab4af32130,1759226810231197287,-0.507355,-0.823975,1.592636,-0.019043,-0.503906,0.899902,1.6817528124309868,-29.832550554706792,-170.94058206305397,0.07254074513912201,-0.006190094165503979,0.25769561529159546,-0.9634793400764465
04216434-9060-4566-a194-13ca982e27d0,7c474fe1-0c6f-4be3-b831-2fab4af32130,1759226810241909287,-0.143051,-0.825882,1.718521,-0.021973,-0.525391,0.904297,1.6766246571004875,-29.83099329800275,-170.92193487282566,0.07270953059196472,-0.006274056620895863,0.2576782703399658,-0.9634706974029541
04216434-9060-4566-a194-13ca982e27d0,7c474fe1-0c6f-4be3-b831-2fab4af32130,1759226810252621287,-0.082016,-1.375198,1.535416,-0.021484,-0.501953,0.902344,1.6733655248206059,-29.832390472012914,-170.8702237829617,0.07315120846033096,-0.006418718956410885,0.2576850652694702,-0.9634345173835754
04216434-9060-4566-a194-13ca982e27d0,7c474fe1-0c6f-4be3-b831-2fab4af32130,1759226810263333287,0.164032,-1.312256,1.23024,-0.031738,-0.530762,0.885742,1.6678540092571212,-29.825532959308273,-170.8631929077838,0.07322487235069275,-0.0064761582762002945,0.2576238214969635,-0.9634438753128052
04216434-9060-4566-a194-13ca982e27d0,7c474fe1-0c6f-4be3-b831-2fab4af32130,1759226810273702287,0.34523,-1.98555,1.104355,-0.01709,-0.509277,0.887695,1.6493670944761802,-29.82439702284003,-170.80463516307117,0.0737590566277504,-0.006762373261153698,0.2575989067554474,-0.9634082913398743
04216434-9060-4566-a194-13ca982e27d0,7c474fe1-0c6f-4be3-b831-2fab4af32130,1759226810284071287,0.652313,-1.678467,1.23024,-0.016602,-0.514648,0.891602,1.6359822313944112,-29.81714815212764,-170.79885193026496,0.07383991777896881,-0.006882739253342152,0.25752896070480347,-0.9634202122688293
04216434-9060-4566-a194-13ca982e27d0,7c474fe1-0c6f-4be3-b831-2fab4af32130,1759226810294440287,0.469208,-1.861572,1.169205,-0.020996,-0.513672,0.893066,1.623850748702567,-29.814854974936512,-170.79914737840554,0.0738653764128685,-0.006982437334954739,0.25750187039375305,-0.9634248614311218
04216434-9060-4566-a194-13ca982e27d0,7c474fe1-0c6f-4be3-b831-2fab4af32130,1759226810302478287,0.408173,-1.800537,1.23024,-0.011719,-0.507324,0.893066,1.6121978945063842,-29.811082263655784,-170.82987155767137,0.07363436371088028,-0.0070086997002363205,0.25746452808380127,-0.9634523987770081
04216434-9060-4566-a194-13ca982e27d0,7c474fe1-0c6f-4be3-b831-2fab4af32130,1759226810310515287,0.34523,-1.737595,0.921249,-0.013184,-0.495605,0.891602,1.5965081360010394,-29.80566474286314,-170.84884573064795,0.07351168245077133,-0.0070941634476184845,0.25741007924079895,-0.96347576379776
04216434-9060-4566-a194-13ca982e27d0,7c474fe1-0c6f-4be3-b831-2fab4af32130,1759226810318552287,0.102997,-1.556396,0.986099,-0.016113,-0.499512,0.899414,1.5831300716393557,-29.80240513703937,-170.838009375532,0.07363379746675491,-0.0072286780923604965,0.2573733925819397,-0.9634753465652466
04216434-9060-4566-a194-13ca982e27d0,7c474fe1-0c6f-4be3-b831-2fab4af32130,1759226810326589287,0.469208,-1.373291,0.741959,-0.008301,-0.516113,0.89209,1.5712289314773986,-29.794095375868118,-170.83777828280336,0.07366491854190826,-0.007323411293327808,0.2572959065437317,-0.9634929299354553
04216434-9060-4566-a194-13ca982e27d0,7c474fe1-0c6f-4be3-b831-2fab4af32130,1759226810337215287,0.164032,-1.495361,0.558853,-0.016602,-0.512207,0.908203,1.5572938484667247,-29.79358847038951,-170.82552829718608,0.07379935681819916,-0.007467729039490223,0.2572818994522095,-0.9634852409362793
04216434-9060-4566-a194-13ca982e27d0,7c474fe1-0c6f-4be3-b831-2fab4af32130,1759226810347841287,0.469208,-1.312256,0.314713,-0.018066,-0.518555,0.897949,1.5426681786015684,-29.78776424340807,-170.79395823336262,0.0740993469953537,-0.007657472975552082,0.2572214603424072,-0.9634767770767212
04216434-9060-4566-a194-13ca982e27d0,7c474fe1-0c6f-4be3-b831-2fab4af32130,1759226810358467287,0.528336,-1.192093,0.070572,-0.024414,-0.516602,0.904297,1.5381345149419952,-29.78743101102139,-170.8162235027502,0.07392241805791855,-0.007645382545888424,0.2572172284126282,-0.9634915590286255
04216434-9060-4566-a194-13ca982e27d0,7c474fe1-0c6f-4be3-b831-2fab4af32130,1759226810366457287,0.34523,-0.886917,-0.173569,-0.014648,-0.504395,0.896973,1.5326202974020673,-29.785905042569137,-170.85001179497908,0.07365114241838455,-0.007614831440150738,0.2572031021118164,-0.963516354560852
04216434-9060-4566-a194-13ca982e27d0,7c474fe1-0c6f-4be3-b831-2fab4af32130,1759226810374450287,0.835419,-0.946045,-0.360489,-0.015625,-0.497559,0.887695,1.527117080718831,-29.782423025267104,-170.8640527468615,0.07354644685983658,-0.0076271481812000275,0.25717124342918396,-0.9635327458381653
04216434-9060-4566-a194-13ca982e27d0,7c474fe1-0c6f-4be3-b831-2fab4af32130,1759226810382443287,0.652313,-1.068115,-0.543594,-0.01416,-0.492188,0.890625,1.523167278918745,-29.777150552821613,-170.89119693102705,0.07332859933376312,-0.007595757022500038,0.25712621212005615,-0.9635615944862366
04216434-9060-4566-a194-13ca982e27d0,7c474fe1-0c6f-4be3-b831-2fab4af32130,1759226810390436287,0.774384,-0.946045,-1.031876,-0.021484,-0.503906,0.897461,1.507097709086423,-29.768988739872963,-170.91183900232727,0.07319344580173492,-0.0076788850128650665,0.25704875588417053,-0.9635917544364929
04216434-9060-4566-a194-13ca982e27d0,7c474fe1-0c6f-4be3-b831-2fab4af32130,1759226810401105287,0.225067,-0.579834,-1.337051,-0.015625,-0.507812,0.886719,1.4866302719977373,-29.76546507233382,-170.9237659875739,0.07314009219408035,-0.00782181229442358,0.2570069432258606,-0.9636055827140808
04216434-9060-4566-a194-13ca982e27d0,7c474fe1-0c6f-4be3-b831-2fab4af32130,1759226810411774287,0.286102,-0.457764,-1.272202,-0.013184,-0.513184,0.883301,1.4713399547338506,-29.766931614255864,-170.91610877649865,0.07323837280273438,-0.007968604564666748,0.25700902938842773,-0.9635961651802063
04216434-9060-4566-a194-13ca982e27d0,7c474fe1-0c6f-4be3-b831-2fab4af32130,1759226810422443287,-0.202179,-0.274658,-1.455307,-0.012695,-0.498047,0.895996,1.4612013719488428,-29.763024890744457,-170.9387742008782,0.07307163625955582,-0.008000322617590427,0.2569713294506073,-0.9636185169219971
04216434-9060-4566-a194-13ca982e27d0,7c474fe1-0c6f-4be3-b831-2fab4af32130,1759226810430443287,-0.448227,-0.398636,-1.577377,-0.020508,-0.513184,0.900879,1.4485160588562276,-29.76791957612827,-170.9727133578157,0.07281329482793808,-0.008034273982048035,0.25700676441192627,-0.963628351688385
04216434-9060-4566-a194-13ca982e27d0,7c474fe1-0c6f-4be3-b831-2fab4af32130,1759226810438443287,-0.631332,-0.154495,-1.577377,0.00293,-0.504395,0.897949,1.4295175499373467,-29.772756546134737,-170.9685931536871,0.07288920879364014,-0.008206645958125591,0.25703510642051697,-0.9636133909225464
04216434-9060-4566-a194-13ca982e27d0,7c474fe1-0c6f-4be3-b831-2fab4af32130,1759226810446443287,-0.873566,0.335693,-1.214981,-0.003906,-0.514648,0.880371,1.4179080026068718,-29.78354490505235,-170.97308656704234,0.07287444174289703,-0.008301655761897564,0.25711873173713684,-0.9635913372039795
04216434-9060-4566-a194-13ca982e27d0,7c474fe1-0c6f-4be3-b831-2fab4af32130,1759226810454443287,-1.119614,0.638962,-1.394272,-0.019043,-0.516113,0.893066,1.4153235939205568,-29.797656929268918,-171.00020353345116,0.07264824211597443,-0.008272241801023483,0.25723758339881897,-0.9635772109031677
04216434-9060-4566-a194-13ca982e27d0,7c474fe1-0c6f-4be3-b831-2fab4af32130,1759226810465123287,-1.119614,0.577927,-1.337051,-0.019043,-0.514648,0.890137,1.4138225551726809,-29.80887091810186,-171.05130912974943,0.07221871614456177,-0.008177796378731728,0.25733447074890137,-0.9635847210884094
04216434-9060-4566-a194-13ca982e27d0,7c474fe1-0c6f-4be3-b831-2fab4af32130,1759226810475803287,-1.667023,0.701904,-0.84877,-0.013672,-0.520996,0.892578,1.411662026353499,-29.825612112818384,-171.09649117462473,0.07183896005153656,-0.008105892688035965,0.25747695565223694,-0.9635758996009827
04216434-9060-4566-a194-13ca982e27d0,7c474fe1-0c6f-4be3-b831-2fab4af32130,1759226810486483287,-1.483917,0.640869,-0.78392,-0.012207,-0.509277,0.879883,1.4099487438951015,-29.844396292732622,-171.13069000551596,0.07155001908540726,-0.008056208491325378,0.2576361298561096,-0.9635553956031799
04216434-9060-4566-a194-13ca982e27d0,7c474fe1-0c6f-4be3-b831-2fab4af32130,1759226810497144287,-1.300812,0.823975,-0.478745,-0.014648,-0.521973,0.880859,1.4083206726728537,-29.85934838634863,-171.11810256343236,0.07165537029504776,-0.008108366280794144,0.25775986909866333,-0.9635140895843506
04216434-9060-4566-a194-13ca982e27d0,7c474fe1-0c6f-4be3-b831-2fab4af32130,1759226810507806287,-1.607895,1.127243,-0.295639,-0.010254,-0.531738,0.88916,1.4117267962445743,-29.87909310704118,-171.09756721295912,0.0718148797750473,-0.008139380253851414,0.25792646408081055,-0.9634574055671692
04216434-9060-4566-a194-13ca982e27d0,7c474fe1-0c6f-4be3-b831-2fab4af32130,1759226810518468287,-0.810623,1.066208,-0.478745,-0.020996,-0.529297,0.907715,1.4168107035088415,-29.896049018012555,-171.0679591095944,0.0720476359128952,-0.008174877613782883,0.2580700218677521,-0.9634013175964355
04216434-9060-4566-a194-13ca982e27d0,7c474fe1-0c6f-4be3-b831-2fab4af32130,1759226810526513287,-0.143051,1.493454,-0.234604,-0.030762,-0.516602,0.892578,1.4320060584008794,-29.906766215226554,-171.1057975831702,0.07169229537248611,-0.007969213649630547,0.25817227363586426,-0.9634021520614624
04216434-9060-4566-a194-13ca982e27d0,7c474fe1-0c6f-4be3-b831-2fab4af32130,1759226810534559287,0.34523,1.310349,0.009537,-0.019043,-0.51123,0.88916,1.4336398561934438,-29.91077662466786,-171.11540244575343,0.07160674780607224,-0.007936576381325722,0.25820767879486084,-0.9633992314338684
04216434-9060-4566-a194-13ca982e27d0,7c474fe1-0c6f-4be3-b831-2fab4af32130,1759226810542605287,0.528336,1.127243,0.192642,-0.014648,-0.513184,0.888184,1.4374070310181428,-29.91259082076587,-171.1276363999973,0.07149489969015121,-0.007878574542701244,0.2582261264324188,-0.963403046131134
04216434-9060-4566-a194-13ca982e27d0,7c474fe1-0c6f-4be3-b831-2fab4af32130,1759226810550651287,0.711441,0.944138,-0.112534,-0.022949,-0.524414,0.901367,1.4378483386379386,-29.91393586400716,-171.1416449699748,0.0713757574558258,-0.007844213396310806,0.25823867321014404,-0.9634087681770325
04216434-9060-4566-a194-13ca982e27d0,7c474fe1-0c6f-4be3-b831-2fab4af32130,1759226810561244287,1.3237,1.00708,-0.173569,-0.032227,-0.523438,0.902832,1.4501869634239675,-29.904284307504202,-171.16638409701181,0.07114266604185104,-0.007678193040192127,0.25816693902015686,-0.9634464979171753
04216434-9060-4566-a194-13ca982e27d0,7c474fe1-0c6f-4be3-b831-2fab4af32130,1759226810571837287,1.811981,1.00708,-0.055313,-0.029297,-0.519043,0.890625,1.4624048431741323,-29.89218495174526,-171.1916890186661,0.07090577483177185,-0.007510281167924404,0.2580745220184326,-0.9634900093078613
04216434-9060-4566-a194-13ca982e27d0,7c474fe1-0c6f-4be3-b831-2fab4af32130,1759226810582430287,2.178192,0.823975,-0.055313,-0.013184,-0.528809,0.896973,1.4675970373457707,-29.877744994775565,-171.1697588153142,0.07108251750469208,-0.007506217807531357,0.2579549252986908,-0.9635091423988342
04216434-9060-4566-a194-13ca982e27d0,7c474fe1-0c6f-4be3-b831-2fab4af32130,1759226810593102287,2.607346,0.089645,-0.112534,-0.034668,-0.512695,0.899902,1.4706838438121679,-29.856723037669276,-171.16586041305794,0.07111424952745438,-0.007474775426089764,0.25777989625930786,-0.9635539650917053
04216434-9060-4566-a194-13ca982e27d0,7c474fe1-0c6f-4be3-b831-2fab4af32130,1759226810603776287,2.544403,0.152588,0.253677,-0.051758,-0.511719,0.895019,1.476368474856096,-29.833158411982904,-171.19238146387153,0.070885069668293,-0.0073513733223080635,0.2575870752334595,-0.9636234045028687
04216434-9060-4566-a194-13ca982e27d0,7c474fe1-0c6f-4be3-b831-2fab4af32130,1759226810614450287,3.276825,-0.091553,0.432968,-0.033203,-0.518066,0.888184,1.4891405532287685,-29.804000790758487,-171.14694584187677,0.0712466686964035,-0.007326281629502773,0.2573470175266266,-0.9636610746383667
04216434-9060-4566-a194-13ca982e27d0,7c474fe1-0c6f-4be3-b831-2fab4af32130,1759226810622454287,3.458023,-0.703812,1.28746,-0.041016,-0.51416,0.902832,1.5009022684754598,-29.745871027837993,-171.08893509571135,0.07172462344169617,-0.007317881099879742,0.256862074136734,-0.9637549519538879
04216434-9060-4566-a194-13ca982e27d0,7c474fe1-0c6f-4be3-b831-2fab4af32130,1759226810630458287,3.887177,-1.190186,1.535416,-0.053223,-0.518555,0.889648,1.5060260176267788,-29.7088128792534,-171.073124712304,0.07185668498277664,-0.007284850813448429,0.2565528452396393,-0.9638274312019348
04216434-9060-4566-a194-13ca982e27d0,7c474fe1-0c6f-4be3-b831-2fab4af32130,1759226810638462287,3.582001,-1.373291,2.080917,-0.048828,-0.506348,0.890137,1.516014101976069,-29.67454613063679,-171.0496492683,0.0720415860414505,-0.007229866459965706,0.256269633769989,-0.9638891220092773
04216434-9060-4566-a194-13ca982e27d0,7c474fe1-0c6f-4be3-b831-2fab4af32130,1759226810646466287,3.704071,-1.495361,2.569199,-0.043457,-0.503418,0.884766,1.523166010914724,-29.639518484016776,-171.0256636273666,0.07223741710186005,-0.007199241779744625,0.2559782564640045,-0.9639517068862915
04216434-9060-4566-a194-13ca982e27d0,7c474fe1-0c6f-4be3-b831-2fab4af32130,1759226810657156287,3.458023,-1.98555,3.240585,-0.038574,-0.504883,0.897949,1.527428514775763,-29.608313398691003,-171.00598335868818,0.07240230590105057,-0.007185661233961582,0.25571703910827637,-0.9640098810195923
04216434-9060-4566-a194-13ca982e27d0,7c474fe1-0c6f-4be3-b831-2fab4af32130,1759226810667846287,2.847672,-1.497269,3.427505,-0.035645,-0.511719,0.885254,1.531130688541623,-29.586463229565556,-170.99361693540195,0.07250435650348663,-0.007166991010308266,0.2555348873138428,-0.9640506505966187
04216434-9060-4566-a194-13ca982e27d0,7c474fe1-0c6f-4be3-b831-2fab4af32130,1759226810678536287,2.790451,-1.375198,3.610611,-0.036133,-0.510254,0.880371,1.539230075884963,-29.563792961353414,-170.95836347416983,0.07278941571712494,-0.007161712273955345,0.25534719228744507,-0.964078962802887
04216434-9060-4566-a194-13ca982e27d0,7c474fe1-0c6f-4be3-b831-2fab4af32130,1759226810689214287,2.176285,-0.825882,3.671646,-0.038574,-0.510742,0.891113,1.5495027823026324,-29.542730789928548,-170.92390706538635,0.07306251674890518,-0.0071373796090483665,0.2551744878292084,-0.964104175567627
04216434-9060-4566-a194-13ca982e27d0,7c474fe1-0c6f-4be3-b831-2fab4af32130,1759226810699894287,2.054214,-0.703812,3.610611,-0.018555,-0.505859,0.879394,1.5665311128790773,-29.526202355076983,-170.8886791888242,0.07332579791545868,-0.00706098135560751,0.25504419207572937,-0.9641192555427551
04216434-9060-4566-a194-13ca982e27d0,7c474fe1-0c6f-4be3-b831-2fab4af32130,1759226810710574287,2.422333,-0.762939,3.36647,-0.021973,-0.5,0.887695,1.5738478104799976,-29.506393548030196,-170.79507846932609,0.07410282641649246,-0.007193738594651222,0.2548765242099762,-0.9641031622886658
04216434-9060-4566-a194-13ca982e27d0,7c474fe1-0c6f-4be3-b831-2fab4af32130,1759226810721189287,2.361298,-1.922607,3.000259,-0.010254,-0.505859,0.880859,1.5711152880351844,-29.466768157367024,-170.667846588694,0.07519103586673737,-0.00747130811214447,0.25453341007232666,-0.9641074538230896
04216434-9060-4566-a194-13ca982e27d0,7c474fe1-0c6f-4be3-b831-2fab4af32130,1759226810731806287,1.873016,-2.7771,2.878189,-0.033203,-0.503906,0.869141,1.5643593385579369,-29.449302438527223,-170.6487105259315,0.07537220418453217,-0.007558110170066357,0.25438085198402405,-0.9641329050064087
04216434-9060-4566-a194-13ca982e27d0,7c474fe1-0c6f-4be3-b831-2fab4af32130,1759226810742423287,1.750946,-3.326416,2.511978,-0.018555,-0.505859,0.870117,1.5468985326392595,-29.43813972386307,-170.63550843835088,0.07552532851696014,-0.00772630050778389,0.2542746067047119,-0.9641476273536682
04216434-9060-4566-a194-13ca982e27d0,7c474fe1-0c6f-4be3-b831-2fab4af32130,1759226810753095287,1.079559,-2.655029,2.264023,-0.000977,-0.5,0.887207,1.5299738028972116,-29.43244945702543,-170.64497072320614,0.07548493891954422,-0.007843623869121075,0.2542162537574768,-0.964165210723877
04216434-9060-4566-a194-13ca982e27d0,7c474fe1-0c6f-4be3-b831-2fab4af32130,1759226810763768287,0.286102,-1.556396,1.897812,-0.006348,-0.514648,0.876953,1.5096969166933307,-29.430589474300703,-170.6609379255869,0.0753961130976677,-0.007977476343512535,0.2541883587837219,-0.9641784429550171
04216434-9060-4566-a194-13ca982e27d0,7c474fe1-0c6f-4be3-b831-2fab4af32130,1759226810774441287,-0.202179,-1.434326,1.592636,-0.005371,-0.505371,0.889648,1.4979195425722316,-29.436403755758754,-170.67124061712633,0.0753338634967804,-0.008057878352701664,0.25423023104667664,-0.9641715884208679
04216434-9060-4566-a194-13ca982e27d0,7c474fe1-0c6f-4be3-b831-2fab4af32130,1759226810782432287,-0.263214,-0.152588,0.558853,-0.015137,-0.513184,0.896484,1.4888137200846976,-29.44556303420838,-170.6226270946137,0.07576043158769608,-0.00824892707169056,0.25429779291152954,-0.9641187191009521
04216434-9060-4566-a194-13ca982e27d0,7c474fe1-0c6f-4be3-b831-2fab4af32130,1759226810790421287,-0.385284,0.030518,-0.112534,-0.013184,-0.505859,0.891113,1.4828870215120122,-29.446581681562485,-170.64403322882808,0.07559318840503693,-0.008252020925283432,0.2543039917945862,-0.964130163192749
04216434-9060-4566-a194-13ca982e27d0,7c474fe1-0c6f-4be3-b831-2fab4af32130,1759226810798410287,-0.570297,0.089645,0.070572,-0.019531,-0.51709,0.891113,1.4802155590162753,-29.453003830332563,-170.64419947680753,0.07559585571289062,-0.00827872846275568,0.2543562352657318,-0.9641159772872925
04216434-9060-4566-a194-13ca982e27d0,7c474fe1-0c6f-4be3-b831-2fab4af32130,1759226810806399287,0.040054,-0.032425,-0.478745,-0.016602,-0.527344,0.895019,1.4762491616987719,-29.460435087619558,-170.60863493129182,0.07590172439813614,-0.008396387100219727,0.25441351532936096,-0.9640758037567139
04216434-9060-4566-a194-13ca982e27d0,7c474fe1-0c6f-4be3-b831-2fab4af32130,1759226810817087287,0.652313,0.518799,-0.66185,-0.016602,-0.52832,0.910156,1.4711819290547714,-29.463878577091194,-170.62039397033948,0.07581304758787155,-0.008415386080741882,0.25443997979164124,-0.9640756249427795
04216434-9060-4566-a194-13ca982e27d0,7c474fe1-0c6f-4be3-b831-2fab4af32130,1759226810827775287,0.835419,0.335693,-0.600815,-0.018066,-0.509277,0.895508,1.471277121328113,-29.465808846849,-170.62830881600684,0.07574568688869476,-0.008398394100368023,0.25445684790611267,-0.9640766382217407
04216434-9060-4566-a194-13ca982e27d0,7c474fe1-0c6f-4be3-b831-2fab4af32130,1759226810838463287,1.016617,0.455856,-0.360489,-0.020508,-0.51416,0.908691,1.467232881630643,-29.467348520890205,-170.62765303876157,0.07575973868370056,-0.008434979245066643,0.25446707010269165,-0.9640725255012512
04216434-9060-4566-a194-13ca982e27d0,7c474fe1-0c6f-4be3-b831-2fab4af32130,1759226810849120287,1.384735,0.335693,-0.722885,-0.015137,-0.512695,0.90918,1.471948709700191,-29.454328369567143,-170.62459134460127,0.07577879726886749,-0.0083927595987916,0.25436049699783325,-0.9640994668006897
04216434-9060-4566-a194-13ca982e27d0,7c474fe1-0c6f-4be3-b831-2fab4af32130,1759226810859779287,2.176285,-0.398636,-0.478745,-0.027832,-0.507812,0.916016,1.4684352511570191,-29.436013317297476,-170.622046440749,0.07581330090761185,-0.008414813317358494,0.2542039752006531,-0.964137852191925
04216434-9060-4566-a194-13ca982e27d0,7c474fe1-0c6f-4be3-b831-2fab4af32130,1759226810870438287,2.176285,-0.21553,-0.173569,-0.034668,-0.498047,0.904785,1.466752150087068,-29.413559532451117,-170.61964995912186,0.0758436843752861,-0.008418160490691662,0.25401386618614197,-0.9641855359077454
04216434-9060-4566-a194-13ca982e27d0,7c474fe1-0c6f-4be3-b831-2fab4af32130,1759226810878442287,3.152847,-0.825882,-0.055313,-0.028809,-0.494141,0.908691,1.4582781814432997,-29.355322710118763,-170.55851400521274,0.07639370113611221,-0.008582884445786476,0.2535139322280884,-0.9642722606658936
04216434-9060-4566-a194-13ca982e27d0,7c474fe1-0c6f-4be3-b831-2fab4af32130,1759226810886445287,3.458023,-1.497269,0.070572,-0.028809,-0.506836,0.903809,1.452729093038068,-29.323960667927295,-170.58256222419638,0.07621265202760696,-0.00855377409607172,0.25324827432632446,-0.9643566012382507
04216434-9060-4566-a194-13ca982e27d0,7c474fe1-0c6f-4be3-b831-2fab4af32130,1759226810894448287,3.154755,-1.617432,0.070572,-0.029785,-0.492676,0.890625,1.4426668509041423,-29.29512292735508,-170.6022542620005,0.07607743889093399,-0.008574194274842739,0.25300049781799316,-0.9644321203231812
04216434-9060-4566-a194-13ca982e27d0,7c474fe1-0c6f-4be3-b831-2fab4af32130,1759226810902451287,3.093719,-1.678467,0.253677,-0.030762,-0.503418,0.901855,1.4303950728714583,-29.266107442542122,-170.59974977930395,0.07613389939069748,-0.008662133477628231,0.2527480721473694,-0.9644930958747864
04216434-9060-4566-a194-13ca982e27d0,7c474fe1-0c6f-4be3-b831-2fab4af32130,1759226810913169287,3.21579,-1.983643,0.497818,-0.032715,-0.487793,0.899414,1.4158719951266485,-29.231333438809767,-170.64284294996182,0.07581308484077454,-0.008664433844387531,0.2524491548538208,-0.9645966291427612
04216434-9060-4566-a194-13ca982e27d0,7c474fe1-0c6f-4be3-b831-2fab4af32130,1759226810923887287,3.458023,-1.9207,0.375748,-0.027344,-0.478027,0.906738,1.40196080986088,-29.192554456356604,-170.6929381501172,0.07543295621871948,-0.00864357128739357,0.25211748480796814,-0.9647133350372314
04216434-9060-4566-a194-13ca982e27d0,7c474fe1-0c6f-4be3-b831-2fab4af32130,1759226810934605287,3.21579,-1.922607,0.009537,-0.015625,-0.476074,0.910156,1.3821419306996383,-29.15315554067443,-170.70657067473346,0.07537280768156052,-0.008752437308430672,0.2517739534378052,-0.9648067355155945
04216434-9060-4566-a194-13ca982e27d0,7c474fe1-0c6f-4be3-b831-2fab4af32130,1759226810945194287,3.520966,-1.434326,0.127792,-0.011719,-0.46875,0.900391,1.362446437800726,-29.111375102934613,-170.7007125513023,0.07547701895236969,-0.008901446126401424,0.2514089345932007,-0.9648923873901367
04216434-9060-4566-a194-13ca982e27d0,7c474fe1-0c6f-4be3-b831-2fab4af32130,1759226810955782287,3.032684,-2.105713,0.009537,-0.006348,-0.477051,0.900391,1.3382632424718082,-29.069422826539636,-170.67310784012955,0.07577411085367203,-0.009135755710303783,0.25103771686553955,-0.9649635553359985
04216434-9060-4566-a194-13ca982e27d0,7c474fe1-0c6f-4be3-b831-2fab4af32130,1759226810966370287,3.030777,-2.046585,-0.543594,-0.01123,-0.476562,0.907715,1.3103173268804695,-29.034449983450337,-170.7052215606603,0.07557447254657745,-0.009275931864976883,0.25072747468948364,-0.9650585055351257
04216434-9060-4566-a194-13ca982e27d0,7c474fe1-0c6f-4be3-b831-2fab4af32130,1759226810977051287,2.605438,-1.739502,-0.478745,-0.01416,-0.476562,0.904785,1.2624233358691206,-28.96108244572384,-170.68372792945038,0.07588010281324387,-0.009674218483269215,0.25007644295692444,-0.9651994109153748
04216434-9060-4566-a194-13ca982e27d0,7c474fe1-0c6f-4be3-b831-2fab4af32130,1759226810987733287,2.422333,-1.922607,-0.722885,-0.019043,-0.470703,0.905762,1.241197295059384,-28.923260685917416,-170.7268095810259,0.07557366043329239,-0.009732266888022423,0.2497476190328598,-0.9653080105781555
04216434-9060-4566-a194-13ca982e27d0,7c474fe1-0c6f-4be3-b831-2fab4af32130,1759226810998415287,2.910614,-1.556396,-0.600815,-0.022461,-0.450195,0.906738,1.2247158658752177,-28.881859606961058,-170.77887266580458,0.0751819759607315,-0.009728561155498028,0.2493925839662552,-0.9654303789138794
04216434-9060-4566-a194-13ca982e27d0,7c474fe1-0c6f-4be3-b831-2fab4af32130,1759226811006403287,2.422333,-1.495361,-0.967026,-0.004395,-0.459961,0.910156,1.2083012721342232,-28.842484201226476,-170.8008375566183,0.07504301518201828,-0.009791474789381027,0.24905210733413696,-0.9655283689498901
04216434-9060-4566-a194-13ca982e27d0,7c474fe1-0c6f-4be3-b831-2fab4af32130,1759226811014392287,2.422333,-1.312256,-1.031876,-0.028809,-0.45166,0.898926,1.1869316559524874,-28.80644127830408,-170.8195273478202,0.07494139671325684,-0.009905733168125153,0.248736172914505,-0.9656164646148682
04216434-9060-4566-a194-13ca982e27d0,7c474fe1-0c6f-4be3-b831-2fab4af32130,1759226811022381287,1.993179,-1.008987,-1.150131,-0.010254,-0.435059,0.901855,1.1741690595045373,-28.771181301325463,-170.8345575127716,0.07485160231590271,-0.009956062771379948,0.24843212962150574,-0.965701162815094
04216434-9060-4566-a194-13ca982e27d0,7c474fe1-0c6f-4be3-b831-2fab4af32130,1759226811030370287,1.384735,-1.12915,-1.577377,-0.027832,-0.447754,0.89209,1.1557796025157776,-28.73720676476553,-170.872602864925,0.07457959651947021,-0.010004975832998753,0.24813726544380188,-0.9657974243164062
04216434-9060-4566-a194-13ca982e27d0,7c474fe1-0c6f-4be3-b831-2fab4af32130,1759226811041104287,1.016617,-1.192093,-1.394272,-0.025391,-0.43457,0.879394,1.1472727852439872,-28.711091823815313,-170.8900422390282,0.07445772737264633,-0.010020814836025238,0.24791324138641357,-0.9658641815185547
04216434-9060-4566-a194-13ca982e27d0,7c474fe1-0c6f-4be3-b831-2fab4af32130,1759226811051838287,-0.080109,-1.434326,-1.394272,-0.021484,-0.435059,0.894043,1.1320409321001137,-28.68994164423342,-170.88049547645937,0.07457654923200607,-0.010155193507671356,0.24772430956363678,-0.9659020304679871
04216434-9060-4566-a194-13ca982e27d0,7c474fe1-0c6f-4be3-b831-2fab4af32130,1759226811062572287,-0.385284,-1.434326,-1.520157,-0.02832,-0.452148,0.890137,1.117069156959362,-28.676397304309805,-170.91826081560012,0.07429401576519012,-0.010190404951572418,0.24760381877422333,-0.9659543037414551
04216434-9060-4566-a194-13ca982e27d0,7c474fe1-0c6f-4be3-b831-2fab4af32130,1759226811070537287,-1.850128,-1.800537,-0.66185,-0.03125,-0.443848,0.894531,1.0907208892928948,-28.673308495938485,-170.9633350855215,0.07397176325321198,-0.0103130042552948,0.24756479263305664,-0.9659876823425293
04216434-9060-4566-a194-13ca982e27d0,7c474fe1-0c6f-4be3-b831-2fab4af32130,1759226811078503287,-3.192902,-2.288818,-0.417709,-0.038086,-0.436035,0.887695,1.0790265263650993,-28.680660723654807,-170.95493918263796,0.07406596839427948,-0.010434775613248348,0.2476184368133545,-0.9659653902053833
04216434-9060-4566-a194-13ca982e27d0,7c474fe1-0c6f-4be3-b831-2fab4af32130,1759226811086469287,-4.047394,-1.922607,0.009537,-0.015137,-0.436035,0.885742,1.0645787679670318,-28.698405330379888,-170.94101513883572,0.07421008497476578,-0.01059879083186388,0.24775715172290802,-0.9659176468849182
04216434-9060-4566-a194-13ca982e27d0,7c474fe1-0c6f-4be3-b831-2fab4af32130,1759226811094435287,-5.146027,-2.166748,0.558853,-0.02832,-0.44873,0.883789,1.055060442203395,-28.727876149298556,-170.940892743636,0.07422442734241486,-0.01069960743188858,0.24799945950508118,-0.9658526182174683
04216434-9060-4566-a194-13ca982e27d0,7c474fe1-0c6f-4be3-b831-2fab4af32130,1759226811105104287,-6.000519,-2.288818,0.921249,-0.043945,-0.456055,0.87793,1.0513727185000894,-28.76761342498545,-170.93857301664065,0.07424208521842957,-0.010763028636574745,0.24833163619041443,-0.9657652378082275
04216434-9060-4566-a194-13ca982e27d0,7c474fe1-0c6f-4be3-b831-2fab4af32130,1759226811115773287,-6.427765,-2.960205,1.28746,-0.026855,-0.458008,0.89209,1.0377145045214995,-28.81160376753935,-170.93824034424998,0.07426358759403229,-0.010909088887274265,0.2486933320760727,-0.9656689167022705
04216434-9060-4566-a194-13ca982e27d0,7c474fe1-0c6f-4be3-b831-2fab4af32130,1759226811126442287,-7.404327,-3.02124,1.592636,-0.02832,-0.466309,0.874023,1.0288168909978201,-28.8668360238457,-170.94083281430142,0.07424739003181458,-0.011016377247869968,0.2491530478000641,-0.9655504822731018
04216434-9060-4566-a194-13ca982e27d0,7c474fe1-0c6f-4be3-b831-2fab4af32130,1759226811137103287,-7.707596,-3.511429,2.511978,-0.03125,-0.480469,0.885742,1.0177208044317998,-28.92871777634941,-170.93768939972537,0.07428272068500519,-0.011159203946590424,0.2496667206287384,-0.965413510799408
04216434-9060-4566-a194-13ca982e27d0,7c474fe1-0c6f-4be3-b831-2fab4af32130,1759226811147766287,-8.25882,-4.180908,2.817154,-0.018555,-0.477051,0.895996,1.0026552991959707,-28.99676040037617,-170.85260620500898,0.07501547783613205,-0.011518629267811775,0.25022146105766296,-0.9652090072631836
04216434-9060-4566-a194-13ca982e27d0,7c474fe1-0c6f-4be3-b831-2fab4af32130,1759226811158429287,-8.50296,-4.241943,3.36647,-0.021973,-0.490234,0.890625,0.985719965874345,-29.066949865427137,-170.77626828173925,0.07567800581455231,-0.011876946315169334,0.25079345703125,-0.9650045037269592
04216434-9060-4566-a194-13ca982e27d0,7c474fe1-0c6f-4be3-b831-2fab4af32130,1759226811166422287,-9.052277,-4.425049,3.545761,-0.002441,-0.493164,0.901367,0.9666933796982008,-29.14360454182223,-170.73069506008216,0.07608439773321152,-0.012190637178719044,0.2514213025569916,-0.9648052453994751
04216434-9060-4566-a194-13ca982e27d0,7c474fe1-0c6f-4be3-b831-2fab4af32130,1759226811174415287,-9.115219,-4.610062,3.793716,-0.029785,-0.506348,0.897461,0.9403139659053024,-29.22065130906748,-170.68514441964047,0.07650670409202576,-0.01256688591092825,0.25204721093177795,-0.9646037220954895
04216434-9060-4566-a194-13ca982e27d0,7c474fe1-0c6f-4be3-b831-2fab4af32130,1759226811182408287,-8.869171,-4.730225,4.159927,-0.018555,-0.489258,0.907227,0.9253025085028638,-29.29848006962151,-170.64155286489625,0.07688736915588379,-0.012844105251133442,0.25268715620040894,-0.964402437210083
04216434-9060-4566-a194-13ca982e27d0,7c474fe1-0c6f-4be3-b831-2fab4af32130,1759226811190401287,-8.869171,-5.096436,4.034042,-0.007324,-0.509277,0.908203,0.8990753573941602,-29.373695803887987,-170.61512907233526,0.07714901864528656,-0.01317633967846632,0.2532992660999298,-0.9642164707183838
04216434-9060-4566-a194-13ca982e27d0,7c474fe1-0c6f-4be3-b831-2fab4af32130,1759226811198495287,-8.626938,-5.281448,4.400253,-0.009766,-0.528809,0.891113,0.8735046563862557,-29.45083661342272,-170.60707840382008,0.07725434005260468,-0.013463902287185192,0.25392991304397583,-0.9640381932258606
04216434-9060-4566-a194-13ca982e27d0,7c474fe1-0c6f-4be3-b831-2fab4af32130,1759226811206589287,-8.441925,-4.852295,4.159927,-0.010742,-0.518555,0.895019,0.8487520940699675,-29.534418052785348,-170.60539041937338,0.0773029774427414,-0.013735011219978333,0.2546158730983734,-0.9638495445251465
04216434-9060-4566-a194-13ca982e27d0,7c474fe1-0c6f-4be3-b831-2fab4af32130,1759226811214683287,-8.195877,-5.159378,4.217148,-0.001953,-0.519043,0.900391,0.8208255047654137,-29.60856414839797,-170.54594562201996,0.0778469368815422,-0.014154707081615925,0.2552131116390228,-0.9636417627334595
04216434-9060-4566-a194-13ca982e27d0,7c474fe1-0c6f-4be3-b831-2fab4af32130,1759226811222777287,-7.953644,-4.91333,4.281998,-0.003906,-0.529785,0.902832,0.7913105899366686,-29.680452240724943,-170.48716101357522,0.07838951796293259,-0.01458521094173193,0.2557899057865143,-0.9634383916854858
04216434-9060-4566-a194-13ca982e27d0,7c474fe1-0c6f-4be3-b831-2fab4af32130,1759226811233337287,-7.404327,-4.79126,4.343033,0.004883,-0.537598,0.907715,0.7646191398510437,-29.752168062390705,-170.4367605787416,0.07885543256998062,-0.014973604120314121,0.2563678026199341,-0.9632408022880554
04216434-9060-4566-a194-13ca982e27d0,7c474fe1-0c6f-4be3-b831-2fab4af32130,1759226811243897287,-6.856918,-4.732132,3.915787,-0.001953,-0.535156,0.902832,0.7341787635508448,-29.819795606376314,-170.32871459742555,0.07981528341770172,-0.015520221553742886,0.2569005787372589,-0.9630111455917358
04216434-9060-4566-a194-13ca982e27d0,7c474fe1-0c6f-4be3-b831-2fab4af32130,1759226811254457287,-6.185532,-4.610062,3.728867,0.010254,-0.528809,0.910156,0.7053569602018448,-29.881953857894715,-170.2450148384799,0.08056817948818207,-0.015995481982827187,0.2573910653591156,-0.962809681892395
04216434-9060-4566-a194-13ca982e27d0,7c474fe1-0c6f-4be3-b831-2fab4af32130,1759226811265106287,-5.146027,-3.448486,3.183365,0.023438,-0.536133,0.912109,0.649167451755828,-29.985525815586946,-170.18073346036263,0.08120955526828766,-0.016687996685504913,0.2582120895385742,-0.9625241756439209
04216434-9060-4566-a194-13ca982e27d0,7c474fe1-0c6f-4be3-b831-2fab4af32130,1759226811275756287,-4.779816,-3.082275,2.695084,0.007324,-0.529785,0.90332,0.6279522568866236,-30.033940622954226,-170.151565280293,0.08149074018001556,-0.016967544332146645,0.25859928131103516,-0.9623915553092957
04216434-9060-4566-a194-13ca982e27d0,7c474fe1-0c6f-4be3-b831-2fab4af32130,1759226811286406287,-4.291534,-3.02124,2.634048,0.004883,-0.538086,0.901855,0.605727706469137,-30.079211963886436,-170.1542523717692,0.08150752633810043,-0.017181415110826492,0.2589639723300934,-0.9622882604598999
04216434-9060-4566-a194-13ca982e27d0,7c474fe1-0c6f-4be3-b831-2fab4af32130,1759226811297082287,-3.681183,-2.593994,1.962662,0.004883,-0.53125,0.896484,0.5808475604091187,-30.113949164545236,-170.15270650357056,0.08156849443912506,-0.017419358715415,0.2592376470565796,-0.962205171585083
04216434-9060-4566-a194-13ca982e27d0,7c474fe1-0c6f-4be3-b831-2fab4af32130,1759226811307759287,-3.194809,-2.351761,1.409531,0.01416,-0.532715,0.887695,0.5608085978220575,-30.148079659348987,-170.13276194338468,0.08177323639392853,-0.017657851800322533,0.25950682163238525,-0.9621108770370483
04216434-9060-4566-a194-13ca982e27d0,7c474fe1-0c6f-4be3-b831-2fab4af32130,1759226811318436287,-3.009796,-2.105713,0.921249,0.012695,-0.539551,0.887695,0.5362079689852834,-30.18048278671793,-170.06801665307455,0.08236489444971085,-0.01803499087691307,0.2597511112689972,-0.9619874358177185
04216434-9060-4566-a194-13ca982e27d0,7c474fe1-0c6f-4be3-b831-2fab4af32130,1759226811329105287,-2.521515,-1.800537,-0.055313,0.008301,-0.516113,0.88623,0.48883960608130456,-30.236652484713378,-170.0424482001152,0.0826738029718399,-0.018532203510403633,0.26018431782722473,-0.9618344306945801
04216434-9060-4566-a194-13ca982e27d0,7c474fe1-0c6f-4be3-b831-2fab4af32130,1759226811339776287,-2.338409,-1.861572,-0.360489,0.005859,-0.513672,0.884277,0.46711002870909846,-30.258370006360856,-170.02386067230992,0.0828741118311882,-0.018772901967167854,0.260347843170166,-0.9617682695388794
04216434-9060-4566-a194-13ca982e27d0,7c474fe1-0c6f-4be3-b831-2fab4af32130,1759226811350447287,-2.094269,-1.922607,-0.967026,-0.005859,-0.52832,0.891602,0.44213392532517387,-30.280100450808355,-170.00711979181835,0.08306634426116943,-0.01903669163584709,0.26050934195518494,-0.9617027640342712
04216434-9060-4566-a194-13ca982e27d0,7c474fe1-0c6f-4be3-b831-2fab4af32130,1759226811358445287,-1.424789,-2.168655,-1.337051,0.009766,-0.520996,0.879883,0.41524483204223234,-30.290682240467426,-170.0252148485145,0.0829731896519661,-0.019229058176279068,0.2605816721916199,-0.9616873860359192
04216434-9060-4566-a194-13ca982e27d0,7c474fe1-0c6f-4be3-b831-2fab4af32130,1759226811366442287,-1.361847,-2.410889,-1.825333,0.007812,-0.522949,0.896484,0.3810294753238418,-30.303296401877112,-170.0577655103703,0.08277497440576553,-0.01945149526000023,0.2606682777404785,-0.9616764783859253
04216434-9060-4566-a194-13ca982e27d0,7c474fe1-0c6f-4be3-b831-2fab4af32130,1759226811374439287,-1.178741,-1.739502,-1.394272,-0.008789,-0.519043,0.889648,0.35149775507555797,-30.313873571657684,-170.09742535805776,0.08250695466995239,-0.019616881385445595,0.2607424855232239,-0.9616760611534119
04216434-9060-4566-a194-13ca982e27d0,7c474fe1-0c6f-4be3-b831-2fab4af32130,1759226811390434287,-0.936508,-1.802444,-2.008438,-0.002441,-0.52002,0.89209,0.3015317231801491,-30.334145463773726,-170.11630033033416,0.08245781064033508,-0.02000809833407402,0.26087990403175354,-0.9616348743438721
04216434-9060-4566-a194-13ca982e27d0,7c474fe1-0c6f-4be3-b831-2fab4af32130,1759226811398433287,-1.056671,-1.434326,-1.760483,-0.008789,-0.51416,0.869141,0.2801761540264191,-30.341331517672213,-170.14508623982903,0.08226329833269119,-0.020127015188336372,0.2609298825263977,-0.9616355299949646
04216434-9060-4566-a194-13ca982e27d0,7c474fe1-0c6f-4be3-b831-2fab4af32130,1759226811406432287,-0.936508,-1.497269,-1.882553,0.009277,-0.505371,0.884766,0.2545491871834262,-30.346293501748224,-170.14459020084547,0.08232475072145462,-0.02034682035446167,0.26095303893089294,-0.9616193175315857
04216434-9060-4566-a194-13ca982e27d0,7c474fe1-0c6f-4be3-b831-2fab4af32130,1759226811414431287,-1.056671,-1.617432,-1.520157,-0.012695,-0.519531,0.892578,0.2369709124289187,-30.354674144389993,-170.13532549805961,0.08244073390960693,-0.020521536469459534,0.2610090672969818,-0.9615904688835144
04216434-9060-4566-a194-13ca982e27d0,7c474fe1-0c6f-4be3-b831-2fab4af32130,1759226811423589287,-1.056671,-1.617432,-1.214981,-0.015137,-0.508789,0.898437,0.21528258936108055,-30.359882382083175,-170.15488797174737,0.08232486993074417,-0.020662762224674225,0.26104068756103516,-0.9615887999534607
04216434-9060-4566-a194-13ca982e27d0,7c474fe1-0c6f-4be3-b831-2fab4af32130,1759226811432747287,-1.056671,-1.800537,-1.214981,-0.000977,-0.508301,0.893066,0.1916092183804284,-30.367061099329213,-170.1610469013024,0.08232560753822327,-0.020852599292993546,0.26108503341674805,-0.9615725874900818
04216434-9060-4566-a194-13ca982e27d0,7c474fe1-0c6f-4be3-b831-2fab4af32130,1759226811441905287,-1.361847,-2.105713,-1.031876,-0.000977,-0.516602,0.876953,0.169582666227669,-30.381786399934708,-170.13887761798046,0.08255874365568161,-0.021098647266626358,0.26118868589401245,-0.9615190625190735
04216434-9060-4566-a194-13ca982e27d0,7c474fe1-0c6f-4be3-b831-2fab4af32130,1759226811451063287,-1.605988,-1.922607,-0.600815,-0.008789,-0.520996,0.883789,0.15394056786478935,-30.395322090444505,-170.15180188072884,0.08248314261436462,-0.021210268139839172,0.2612933814525604,-0.9614946246147156
04216434-9060-4566-a194-13ca982e27d0,7c474fe1-0c6f-4be3-b831-2fab4af32130,1759226811459741287,-1.544952,-2.410889,-0.722885,-0.005371,-0.520996,0.868164,0.13030531291353453,-30.41189307229212,-170.164529018382,0.08242683857679367,-0.021391570568084717,0.26141777634620667,-0.96146160364151
04216434-9060-4566-a194-13ca982e27d0,7c474fe1-0c6f-4be3-b831-2fab4af32130,1759226811468421287,-1.728058,-1.739502,-0.360489,0.007813,-0.53125,0.87207,0.11553564062657756,-30.42921821462177,-170.15727132691103,0.08251787722110748,-0.021544605493545532,0.2615511417388916,-0.961414098739624
04216434-9060-4566-a194-13ca982e27d0,7c474fe1-0c6f-4be3-b831-2fab4af32130,1759226811477101287,-1.911163,-1.800537,-0.112534,0.002441,-0.525391,0.87207,0.09608492649507135,-30.449628120569205,-170.15817346491556,0.082550548017025,-0.021720517426729202,0.261708527803421,-0.9613645076751709
04216434-9060-4566-a194-13ca982e27d0,7c474fe1-0c6f-4be3-b831-2fab4af32130,1759226811485781287,-2.458572,-2.046585,-0.234604,0.007812,-0.527832,0.880859,0.07389454536529766,-30.474432719899976,-170.16166393458093,0.08256693184375763,-0.02191665768623352,0.26190128922462463,-0.9613061547279358
04216434-9060-4566-a194-13ca982e27d0,7c474fe1-0c6f-4be3-b831-2fab4af32130,1759226811494461287,-2.521515,-1.739502,-0.173569,-0.000977,-0.521484,0.881836,0.05559224245661402,-30.49893977280053,-170.19792308728495,0.08229967206716537,-0.022004978731274605,0.2621006369590759,-0.9612727761268616
04216434-9060-4566-a194-13ca982e27d0,7c474fe1-0c6f-4be3-b831-2fab4af32130,1759226811504055287,-2.643585,-1.800537,-0.112534,0.008301,-0.532715,0.888672,0.037727027435724717,-30.52485030733429,-170.19124417132605,0.0823914036154747,-0.022188790142536163,0.2623038589954376,-0.961205244064331
04216434-9060-4566-a194-13ca982e27d0,7c474fe1-0c6f-4be3-b831-2fab4af32130,1759226811513649287,-2.277374,-1.983643,-0.112534,0.000488,-0.523438,0.888184,0.01914145336613457,-30.547513299160507,-170.11895567018564,0.08303577452898026,-0.022526586428284645,0.2624664306640625,-0.9610975384712219
04216434-9060-4566-a194-13ca982e27d0,7c474fe1-0c6f-4be3-b831-2fab4af32130,1759226811523243287,-2.338409,-1.739502,-0.417709,0.01123,-0.52832,0.897949,0.0019830161475534206,-30.567339044399322,-170.12837937923905,0.08299211412668228,-0.02266327664256096,0.2626221477985382,-0.9610555171966553
04216434-9060-4566-a194-13ca982e27d0,7c474fe1-0c6f-4be3-b831-2fab4af32130,1759226811532837287,-2.277374,-1.617432,-0.600815,0.004883,-0.525879,0.89209,-0.018736849958838352,-30.586370010420396,-170.12651694270096,0.08305147290229797,-0.022855093702673912,0.26276636123657227,-0.9610064625740051
04216434-9060-4566-a194-13ca982e27d0,7c474fe1-0c6f-4be3-b831-2fab4af32130,1759226811542431287,-2.096176,-1.375198,-0.722885,0.008789,-0.515137,0.897949,-0.03606049352437927,-30.60502693906863,-170.0896537337758,0.08339668065309525,-0.023098453879356384,0.2629028558731079,-0.9609333872795105
04216434-9060-4566-a194-13ca982e27d0,7c474fe1-0c6f-4be3-b831-2fab4af32130,1759226811552038287,-1.728058,-0.823975,-1.031876,0.015625,-0.525879,0.89209,-0.053490616609323166,-30.61637167605998,-170.11741396323163,0.08320166915655136,-0.02318914234638214,0.26299092173576355,-0.9609240293502808
04216434-9060-4566-a194-13ca982e27d0,7c474fe1-0c6f-4be3-b831-2fab4af32130,1759226811561645287,-1.667023,-0.457764,-0.905991,0.013184,-0.512695,0.881836,-0.07072775052870954,-30.630357638069345,-170.15619725936085,0.08291330933570862,-0.0232547614723444,0.26310357451438904,-0.9609165191650391
04216434-9060-4566-a194-13ca982e27d0,7c474fe1-0c6f-4be3-b831-2fab4af32130,1759226811571252287,-0.936508,-0.398636,-0.967026,0.016113,-0.520508,0.895996,-0.08297174528314583,-30.6385073988829,-170.18684116890248,0.08268289268016815,-0.02329292893409729,0.2631692886352539,-0.9609174728393555
04216434-9060-4566-a194-13ca982e27d0,7c474fe1-0c6f-4be3-b831-2fab4af32130,1759226811580859287,-0.753403,-0.21553,-1.455307,0.010742,-0.523438,0.874023,-0.09831591008797172,-30.643562741223782,-170.19805675205356,0.08262312412261963,-0.023399468511343002,0.2632029056549072,-0.9609107971191406
04216434-9060-4566-a194-13ca982e27d0,7c474fe1-0c6f-4be3-b831-2fab4af32130,1759226811590466287,-0.631332,0.272751,-1.760483,0.026367,-0.504395,0.890625,-0.11166798003628312,-30.651655589628753,-170.17716023265342,0.08282748609781265,-0.02356524020433426,0.26325684785842896,-0.9608743786811829
04216434-9060-4566-a194-13ca982e27d0,7c474fe1-0c6f-4be3-b831-2fab4af32130,1759226811600083287,-1.119614,0.089645,-2.065659,0.012695,-0.515625,0.877441,-0.145325951326351,-30.659373621832703,-170.16347815678415,0.08301809430122375,-0.023884449154138565,0.26329439878463745,-0.9608396887779236
04216434-9060-4566-a194-13ca982e27d0,7c474fe1-0c6f-4be3-b831-2fab4af32130,1759226811609697287,-0.629425,0.030518,-1.882553,0.013672,-0.516602,0.891602,-0.15959163572244145,-30.665287183447877,-170.09502449301775,0.0836237221956253,-0.024165615439414978,0.2633192539215088,-0.9607733488082886
04216434-9060-4566-a194-13ca982e27d0,7c474fe1-0c6f-4be3-b831-2fab4af32130,1759226811619311287,-1.056671,0.396729,-2.008438,0.013184,-0.519043,0.869629,-0.17101531185001886,-30.673998763455888,-170.11436363232428,0.08348620682954788,-0.024223247542977333,0.263388067483902,-0.9607649445533752
04216434-9060-4566-a194-13ca982e27d0,7c474fe1-0c6f-4be3-b831-2fab4af32130,1759226811628925287,-1.361847,0.946045,-1.943588,0.009766,-0.514648,0.871582,-0.17759446929686176,-30.682697992686716,-170.1438574088213,0.0832524299621582,-0.024216875433921814,0.26346245408058167,-0.96076500415802
04216434-9060-4566-a194-13ca982e27d0,7c474fe1-0c6f-4be3-b831-2fab4af32130,1759226811638539287,-1.728058,1.373291,-2.126694,0.010742,-0.517578,0.872559,-0.18328898192733264,-30.693908018745542,-170.2042891554143,0.08275677263736725,-0.02413368783891201,0.2635650634765625,-0.9607818126678467
04216434-9060-4566-a194-13ca982e27d0,7c474fe1-0c6f-4be3-b831-2fab4af32130,1759226811648115287,-1.728058,1.678467,-2.126694,0.000977,-0.526855,0.891113,-0.18420307432244729,-30.70429035360001,-170.2562327799006,0.08232145011425018,-0.024029256775975227,0.2636623680591583,-0.9607951641082764
04216434-9060-4566-a194-13ca982e27d0,7c474fe1-0c6f-4be3-b831-2fab4af32130,1759226811657692287,-2.096176,2.103806,-2.248764,0.008301,-0.519531,0.88623,-0.17973350336430383,-30.717589075264296,-170.2908232606322,0.08201871067285538,-0.02392161265015602,0.2637843191623688,-0.9607902765274048
04216434-9060-4566-a194-13ca982e27d0,7c474fe1-0c6f-4be3-b831-2fab4af32130,1759226811667269287,-1.729965,2.103806,-2.248764,0.000977,-0.516113,0.881836,-0.17664074139580604,-30.733628353288335,-170.2956126259667,0.08196850121021271,-0.02389601245522499,0.2639220058917999,-0.9607574343681335
04216434-9060-4566-a194-13ca982e27d0,7c474fe1-0c6f-4be3-b831-2fab4af32130,1759226811676846287,-2.033234,2.166748,-2.126694,0.002441,-0.527344,0.871094,-0.16909509756821203,-30.74818323307107,-170.29575606684855,0.08194725215435028,-0.02384272776544094,0.2640494704246521,-0.9607255458831787
04216434-9060-4566-a194-13ca982e27d0,7c474fe1-0c6f-4be3-b831-2fab4af32130,1759226811686423287,-1.972198,2.349854,-2.191544,0.008789,-0.52832,0.88623,-0.15818816533889118,-30.76620553802347,-170.29466723924207,0.08192792534828186,-0.023766562342643738,0.2642081379890442,-0.9606854915618896
04216434-9060-4566-a194-13ca982e27d0,7c474fe1-0c6f-4be3-b831-2fab4af32130,1759226811696029287,-2.096176,2.351761,-2.126694,0.000488,-0.522949,0.887695,-0.14104133236583313,-30.79888151981597,-170.32255092810541,0.0816485732793808,-0.023581612855196,0.26450008153915405,-0.9606335163116455
04216434-9060-4566-a194-13ca982e27d0,7c474fe1-0c6f-4be3-b831-2fab4af32130,1759226811705639287,-2.033234,2.655029,-1.943588,0.003906,-0.515625,0.892578,-0.12703549963134944,-30.814179970969384,-170.30071452348844,0.08179644495248795,-0.02352544665336609,0.26463383436203003,-0.9605854749679565
04216434-9060-4566-a194-13ca982e27d0,7c474fe1-0c6f-4be3-b831-2fab4af32130,1759226811715249287,-1.913071,2.775192,-2.065659,0.005371,-0.515625,0.880859,-0.11235230603996595,-30.82648256271089,-170.29239724335181,0.08182994276285172,-0.023430299013853073,0.2647457420825958,-0.9605541229248047
04216434-9060-4566-a194-13ca982e27d0,7c474fe1-0c6f-4be3-b831-2fab4af32130,1759226811724859287,-1.913071,2.775192,-2.126694,-0.001953,-0.51123,0.872559,-0.10003259819135814,-30.839344769999368,-170.31339561269752,0.08162303268909454,-0.02328762225806713,0.2648666203022003,-0.9605419039726257
04216434-9060-4566-a194-13ca982e27d0,7c474fe1-0c6f-4be3-b831-2fab4af32130,1759226811734469287,-2.216339,2.7771,-2.248764,-0.004883,-0.518555,0.887695,-0.08573977093909838,-30.85351232015017,-170.3572392266098,0.08121979981660843,-0.023076459765434265,0.26500439643859863,-0.9605432152748108
04216434-9060-4566-a194-13ca982e27d0,7c474fe1-0c6f-4be3-b831-2fab4af32130,1759226811744075287,-2.277374,2.838135,-2.370834,0.011719,-0.514648,0.878418,-0.07003467831970583,-30.867359421331084,-170.38461094944248,0.08095141500234604,-0.022891255095601082,0.26513707637786865,-0.9605336785316467
04216434-9060-4566-a194-13ca982e27d0,7c474fe1-0c6f-4be3-b831-2fab4af32130,1759226811753685287,-2.643585,2.960205,-2.496719,0.007813,-0.51416,0.876465,-0.05649416908084691,-30.88639054774441,-170.3867825403919,0.08089825510978699,-0.02278612181544304,0.26530659198760986,-0.9604938626289368
04216434-9060-4566-a194-13ca982e27d0,7c474fe1-0c6f-4be3-b831-2fab4af32130,1759226811763295287,-2.458572,2.714157,-2.370834,-0.000977,-0.515625,0.877441,-0.04494182790716138,-30.904875482182817,-170.40271086277403,0.08073446154594421,-0.022665400058031082,0.2654728293418884,-0.960464596748352
04216434-9060-4566-a194-13ca982e27d0,7c474fe1-0c6f-4be3-b831-2fab4af32130,1759226811772905287,-2.887726,2.7771,-2.614975,-0.007324,-0.510254,0.893555,-0.030746291058434926,-30.927404099984216,-170.42155907870261,0.080539271235466,-0.02251855842769146,0.2656753659248352,-0.9604284167289734
04216434-9060-4566-a194-13ca982e27d0,7c474fe1-0c6f-4be3-b831-2fab4af32130,1759226811782515287,-2.889633,2.592087,-2.55394,-0.012695,-0.533203,0.881348,-0.01571264739617354,-30.946289490850493,-170.40116411859512,0.08067169040441513,-0.022453121840953827,0.26584020256996155,-0.9603732824325562
04216434-9060-4566-a194-13ca982e27d0,7c474fe1-0c6f-4be3-b831-2fab4af32130,1759226811790721287,-2.826691,2.410889,-2.55394,-0.01123,-0.529297,0.885742,-0.00571691157097229,-30.97114104001343,-170.41083444026575,0.08056262880563736,-0.022364381700754166,0.26605740189552307,-0.9603243470191956
04216434-9060-4566-a194-13ca982e27d0,7c474fe1-0c6f-4be3-b831-2fab4af32130,1759226811798927287,-2.948761,2.166748,-2.496719,-0.012207,-0.519531,0.877441,0.0051687995754749645,-30.9955932422842,-170.46517662789162,0.08007718622684479,-0.02216406911611557,0.26628050208091736,-0.960307776927948
04216434-9060-4566-a194-13ca982e27d0,7c474fe1-0c6f-4be3-b831-2fab4af32130,1759226811807133287,-2.767563,1.79863,-2.614975,-0.004395,-0.522461,0.895019,0.015403851689378823,-31.01646322060263,-170.4725637376833,0.07998742908239365,-0.0220757108181715,0.266463965177536,-0.9602664113044739
04216434-9060-4566-a194-13ca982e27d0,7c474fe1-0c6f-4be3-b831-2fab4af32130,1759226811815339287,-2.521515,1.861572,-2.309799,-0.013672,-0.532227,0.88623,0.022566367133459553,-31.036437155545784,-170.49573483466045,0.0797727033495903,-0.02197572961449623,0.2666407823562622,-0.9602375030517578
04216434-9060-4566-a194-13ca982e27d0,7c474fe1-0c6f-4be3-b831-2fab4af32130,1759226811823545287,-2.948761,1.495361,-2.370834,-0.013672,-0.534668,0.874023,0.0287058680340016,-31.06152364042038,-170.54672356261838,0.07932626456022263,-0.021823033690452576,0.2668650150299072,-0.9602156281471252
04216434-9060-4566-a194-13ca982e27d0,7c474fe1-0c6f-4be3-b831-2fab4af32130,1759226811831751287,-2.46048,1.12915,-2.008438,0.001953,-0.515625,0.875977,0.03421909970681777,-31.082532703896526,-170.5742369418048,0.0790787860751152,-0.021727286279201508,0.2670500874519348,-0.960186779499054
04216434-9060-4566-a194-13ca982e27d0,7c474fe1-0c6f-4be3-b831-2fab4af32130,1759226811841091287,-2.828598,1.066208,-1.760483,0.005859,-0.533691,0.884766,0.0420388751663239,-31.102127751775548,-170.59469824371752,0.07888529449701309,-0.021627601236104965,0.2672235369682312,-0.9601566791534424
04216434-9060-4566-a194-13ca982e27d0,7c474fe1-0c6f-4be3-b831-2fab4af32130,1759226811850431287,-2.521515,0.823975,-1.943588,-0.013672,-0.540039,0.883789,0.03643065370716083,-31.125759909443513,-170.5726163905525,0.0790787860751152,-0.021742429584264755,0.26741349697113037,-0.9600852727890015
04216434-9060-4566-a194-13ca982e27d0,7c474fe1-0c6f-4be3-b831-2fab4af32130,1759226811859771287,-2.521515,0.457764,-1.638412,-0.018555,-0.526367,0.893066,0.038709307078079125,-31.14611281822945,-170.56776629778943,0.07911012321710587,-0.02174873650074005,0.2675846517086029,-0.9600349068641663
04216434-9060-4566-a194-13ca982e27d0,7c474fe1-0c6f-4be3-b831-2fab4af32130,1759226811869111287,-2.035141,0.577927,-1.520157,-0.004883,-0.52832,0.890137,0.04452381638847495,-31.16394427583585,-170.6049148153555,0.07878183573484421,-0.021625567227602005,0.26774507761001587,-0.9600199460983276
04216434-9060-4566-a194-13ca982e27d0,7c474fe1-0c6f-4be3-b831-2fab4af32130,1759226811878451287,-2.096176,0.638962,-1.520157,0.00293,-0.532227,0.882812,0.04709098254561919,-31.179167131353825,-170.5683173136042,0.07907944917678833,-0.02170010283589363,0.26786744594573975,-0.9599596858024597
04216434-9060-4566-a194-13ca982e27d0,7c474fe1-0c6f-4be3-b831-2fab4af32130,1759226811888057287,-1.972198,0.640869,-1.394272,-0.007812,-0.522949,0.882324,0.044219659668197575,-31.196654324236196,-170.54556459363613,0.07927332818508148,-0.021789472550153732,0.26800763607025146,-0.9599025249481201
04216434-9060-4566-a194-13ca982e27d0,7c474fe1-0c6f-4be3-b831-2fab4af32130,1759226811897663287,-1.667023,1.068115,-1.214981,-0.009766,-0.533691,0.88916,0.04695172202387791,-31.209422814544574,-170.54530976666604,0.07926656305789948,-0.021776042878627777,0.26811644434928894,-0.9598729610443115
04216434-9060-4566-a194-13ca982e27d0,7c474fe1-0c6f-4be3-b831-2fab4af32130,1759226811907269287,-1.056671,0.88501,-1.337051,-0.001953,-0.532715,0.901855,0.050785912172119904,-31.217268556812595,-170.55178505428515,0.07920180261135101,-0.02173421159386635,0.2681860327720642,-0.9598598480224609
04216434-9060-4566-a194-13ca982e27d0,7c474fe1-0c6f-4be3-b831-2fab4af32130,1759226811916875287,-0.934601,0.701904,-1.272202,-0.003418,-0.530762,0.879883,0.05123719248298155,-31.222885540577202,-170.5600403917912,0.07913049310445786,-0.02171500399708748,0.2682349681854248,-0.9598524570465088
04216434-9060-4566-a194-13ca982e27d0,7c474fe1-0c6f-4be3-b831-2fab4af32130,1759226811926481287,-0.387192,0.761032,-1.031876,-0.001953,-0.528809,0.887207,0.053541370051145135,-31.224568306501613,-170.5773941603983,0.07897940278053284,-0.02165624126791954,0.2682539224624634,-0.9598609805107117
04216434-9060-4566-a194-13ca982e27d0,7c474fe1-0c6f-4be3-b831-2fab4af32130,1759226811934644287,0.34523,0.516891,-0.967026,-0.005371,-0.539551,0.887207,0.05541616560810138,-31.222931380551973,-170.62733921700112,0.07855696976184845,-0.021522490307688713,0.2682509124279022,-0.9598994851112366
04216434-9060-4566-a194-13ca982e27d0,7c474fe1-0c6f-4be3-b831-2fab4af32130,1759226811942808287,0.591278,0.946045,-1.031876,-0.010742,-0.518066,0.893066,0.06170392908676567,-31.213620583262795,-170.61847074695038,0.0786183699965477,-0.021484170109033585,0.26817557215690613,-0.959916353225708
04216434-9060-4566-a194-13ca982e27d0,7c474fe1-0c6f-4be3-b831-2fab4af32130,1759226811950972287,1.079559,0.640869,-0.543594,-0.012695,-0.533203,0.882324,0.06545004261976137,-31.20664671032509,-170.6245147096675,0.07856034487485886,-0.021433845162391663,0.2681208550930023,-0.9599375128746033
04216434-9060-4566-a194-13ca982e27d0,7c474fe1-0c6f-4be3-b831-2fab4af32130,1759226811959136287,1.140594,0.152588,-0.600815,-0.008301,-0.514648,0.876465,0.06749799239274253,-31.19452422029007,-170.6560419191612,0.0782938227057457,-0.021334605291485786,0.26802659034729004,-0.9599878191947937
04216434-9060-4566-a194-13ca982e27d0,7c474fe1-0c6f-4be3-b831-2fab4af32130,1759226811967300287,1.384735,-0.152588,-0.295639,-0.01416,-0.530273,0.88623,0.06946019306581303,-31.186801655341636,-170.61269145646347,0.07865391671657562,-0.021414238959550858,0.26795515418052673,-0.9599765539169312
04216434-9060-4566-a194-13ca982e27d0,7c474fe1-0c6f-4be3-b831-2fab4af32130,1759226811975464287,1.079559,0.030518,-0.112534,-0.013184,-0.536133,0.88623,0.07266104737565449,-31.182780372524427,-170.55759318886197,0.07910879701375961,-0.021513471379876137,0.2679133415222168,-0.9599486589431763
04216434-9060-4566-a194-13ca982e27d0,7c474fe1-0c6f-4be3-b831-2fab4af32130,1759226811984857287,1.140594,-0.091553,0.127792,-0.005371,-0.516113,0.867676,0.07816261825706164,-31.182005406632804,-170.54365400383344,0.07921285927295685,-0.02149943634867668,0.2679080367088318,-0.9599418640136719
04216434-9060-4566-a194-13ca982e27d0,7c474fe1-0c6f-4be3-b831-2fab4af32130,1759226811994250287,0.406265,-0.21553,0.127792,-0.002441,-0.532227,0.879883,0.0794121092737589,-31.181203834672576,-170.5511529817618,0.07914727926254272,-0.02147088199853897,0.267903596162796,-0.9599491357803345
04216434-9060-4566-a194-13ca982e27d0,7c474fe1-0c6f-4be3-b831-2fab4af32130,1759226812003643287,0.22316,-0.398636,0.432968,0.006348,-0.523926,0.883789,0.07546232780450303,-31.179513218476604,-170.58133283496167,0.07890402525663376,-0.021432243287563324,0.26789236068725586,-0.959973156452179
04216434-9060-4566-a194-13ca982e27d0,7c474fe1-0c6f-4be3-b831-2fab4af32130,1759226812013036287,0.164032,0.030518,0.192642,0.003418,-0.525879,0.856934,0.07786068974010794,-31.179945831143637,-170.5966804377438,0.0787697583436966,-0.02137656882405281,0.2679004967212677,-0.9599831700325012
04216434-9060-4566-a194-13ca982e27d0,7c474fe1-0c6f-4be3-b831-2fab4af32130,1759226812022429287,-0.44632,0.335693,0.314713,-0.013184,-0.519531,0.877441,0.08195046905865065,-31.175562443720835,-170.6087540606522,0.07865992188453674,-0.021311059594154358,0.26786884665489197,-0.9600024223327637
04216434-9060-4566-a194-13ca982e27d0,7c474fe1-0c6f-4be3-b831-2fab4af32130,1759226812032035287,-0.324249,0.030518,0.432968,-0.007324,-0.529785,0.88916,0.08625711166058987,-31.172294385012787,-170.6194992103374,0.0785604789853096,-0.021247606724500656,0.26784640550613403,-0.9600182771682739
04216434-9060-4566-a194-13ca982e27d0,7c474fe1-0c6f-4be3-b831-2fab4af32130,1759226812041643287,-0.448227,-0.21553,0.375748,0.004883,-0.527344,0.873047,0.08656715909444923,-31.16706489294289,-170.57548884673653,0.07892949879169464,-0.02134425938129425,0.2677946388721466,-0.9600002765655518
04216434-9060-4566-a194-13ca982e27d0,7c474fe1-0c6f-4be3-b831-2fab4af32130,1759226812051251287,-0.080109,-0.152588,0.616074,-0.003906,-0.522461,0.87793,0.08503714842981978,-31.163504250175972,-170.52516434314182,0.07935537397861481,-0.021472200751304626,0.26775434613227844,-0.9599735736846924
04216434-9060-4566-a194-13ca982e27d0,7c474fe1-0c6f-4be3-b831-2fab4af32130,1759226812060859287,-0.143051,-0.272751,0.497818,-0.000488,-0.53125,0.875,0.08598209138953039,-31.161323775722035,-170.54707871925484,0.07917001843452454,-0.02141156792640686,0.2677408456802368,-0.9599939584732056
04216434-9060-4566-a194-13ca982e27d0,7c474fe1-0c6f-4be3-b831-2fab4af32130,1759226812070467287,-0.507355,-0.335693,0.741959,0.001953,-0.536621,0.880371,0.08544082818002231,-31.16084498432527,-170.55463311277373,0.0791080892086029,-0.021398117765784264,0.26773786544799805,-0.960000216960907
04216434-9060-4566-a194-13ca982e27d0,7c474fe1-0c6f-4be3-b831-2fab4af32130,1759226812080058287,-0.69046,-0.091553,0.616074,0.001953,-0.520996,0.865723,0.0875810439508916,-31.16591991943173,-170.52212208622873,0.07937443256378174,-0.021459680050611496,0.2677757740020752,-0.9599663019180298
04216434-9060-4566-a194-13ca982e27d0,7c474fe1-0c6f-4be3-b831-2fab4af32130,1759226812089649287,-1.178741,0.213623,0.802994,0.016113,-0.525879,0.869629,0.08762751047167673,-31.1711203642357,-170.51844100291856,0.07940412312746048,-0.02147151716053486,0.2678186893463135,-0.9599515795707703
04216434-9060-4566-a194-13ca982e27d0,7c474fe1-0c6f-4be3-b831-2fab4af32130,1759226812099240287,-1.117706,0.518799,0.680923,0.000977,-0.547363,0.882812,0.09065100675057775,-31.17764076484154,-170.5166624701086,0.07941064983606339,-0.021454889327287674,0.267875075340271,-0.9599356651306152
04216434-9060-4566-a194-13ca982e27d0,7c474fe1-0c6f-4be3-b831-2fab4af32130,1759226812108831287,-1.54686,0.577927,0.802994,-0.004395,-0.534668,0.878906,0.09546868347541104,-31.191282492848398,-170.514227715821,0.07941704243421555,-0.02142973057925701,0.267992228269577,-0.9599030017852783
04216434-9060-4566-a194-13ca982e27d0,7c474fe1-0c6f-4be3-b831-2fab4af32130,1759226812118422287,-1.789093,0.457764,0.314713,0.007324,-0.517578,0.879394,0.1027852731218773,-31.205022914008882,-170.53429930147243,0.07922902703285217,-0.021331053227186203,0.2681161165237427,-0.9598861932754517
04216434-9060-4566-a194-13ca982e27d0,7c474fe1-0c6f-4be3-b831-2fab4af32130,1759226812128021287,-2.035141,0.272751,-0.173569,0.001953,-0.528809,0.875977,0.10490344950272598,-31.239576299119285,-170.5719441372492,0.07890179753303528,-0.02124916948378086,0.2684139907360077,-0.959831714630127
04216434-9060-4566-a194-13ca982e27d0,7c474fe1-0c6f-4be3-b831-2fab4af32130,1759226812137620287,-2.277374,0.396729,0.253677,-0.008301,-0.542969,0.868652,0.10895167243819243,-31.26173928244912,-170.5527381304652,0.07904872298240662,-0.021275639533996582,0.26859885454177856,-0.9597672820091248
04216434-9060-4566-a194-13ca982e27d0,7c474fe1-0c6f-4be3-b831-2fab4af32130,1759226812147219287,-2.521515,0.457764,0.253677,-0.005371,-0.539062,0.859863,0.11294374904540815,-31.28716957341646,-170.49596737948647,0.0795096755027771,-0.021393032744526863,0.26880401372909546,-0.9596691727638245
04216434-9060-4566-a194-13ca982e27d0,7c474fe1-0c6f-4be3-b831-2fab4af32130,1759226812156818287,-2.643585,0.152588,-0.112534,0.003418,-0.55127,0.873047,0.11062511751516463,-31.315053527135316,-170.5032631249695,0.07944835722446442,-0.021414797753095627,0.26903727650642395,-0.9596083760261536
04216434-9060-4566-a194-13ca982e27d0,7c474fe1-0c6f-4be3-b831-2fab4af32130,1759226812166417287,-2.767563,0.272751,-0.112534,0.007813,-0.550293,0.87207,0.1099350045800331,-31.34659762588807,-170.51447381065086,0.07934969663619995,-0.02141624130308628,0.26930302381515503,-0.9595419764518738
04216434-9060-4566-a194-13ca982e27d0,7c474fe1-0c6f-4be3-b831-2fab4af32130,1759226812176024287,-3.009796,0.457764,-0.295639,0.008301,-0.551758,0.878906,0.10973245850021207,-31.37747498493656,-170.52144876371275,0.07928550243377686,-0.02142304927110672,0.2695627212524414,-0.9594742059707642
04216434-9060-4566-a194-13ca982e27d0,7c474fe1-0c6f-4be3-b831-2fab4af32130,1759226812185632287,-2.826691,0.213623,0.009537,-0.011719,-0.532715,0.867676,0.11063823126926851,-31.406314737836613,-170.5163742137522,0.07931999862194061,-0.021447496488690376,0.26980385184288025,-0.9594030380249023
04216434-9060-4566-a194-13ca982e27d0,7c474fe1-0c6f-4be3-b831-2fab4af32130,1759226812195240287,-2.826691,0.396729,-0.112534,-0.01123,-0.542969,0.870117,0.11795144581423166,-31.43167316358634,-170.50756079594598,0.0793713927268982,-0.021424707025289536,0.2700195610523224,-0.9593386054039001
04216434-9060-4566-a194-13ca982e27d0,7c474fe1-0c6f-4be3-b831-2fab4af32130,1759226812204848287,-2.706528,-0.032425,0.009537,-0.003418,-0.54541,0.878418,0.1197711810917801,-31.457589348706612,-170.5119503577754,0.07932515442371368,-0.02141728065907955,0.2702389061450958,-0.9592797756195068
04216434-9060-4566-a194-13ca982e27d0,7c474fe1-0c6f-4be3-b831-2fab4af32130,1759226812214456287,-2.767563,0.150681,0.009537,-0.012207,-0.538086,0.890625,0.12195219981911327,-31.481453239697036,-170.49643349956267,0.0794449895620346,-0.02145225740969181,0.27043718099594116,-0.9592134952545166
04216434-9060-4566-a194-13ca982e27d0,7c474fe1-0c6f-4be3-b831-2fab4af32130,1759226812224047287,-2.643585,0.030518,0.009537,-0.005859,-0.551758,0.878418,0.12638119085620192,-31.53274377936276,-170.44784987747306,0.0798305869102478,-0.021565813571214676,0.27086031436920166,-0.9590598940849304
04216434-9060-4566-a194-13ca982e27d0,7c474fe1-0c6f-4be3-b831-2fab4af32130,1759226812233641287,-2.338409,-0.091553,0.432968,-0.004883,-0.540039,0.870605,0.12909193729638255,-31.556357203376784,-170.42716295372313,0.07999240607023239,-0.02160862274467945,0.2710558772087097,-0.9589903354644775
04216434-9060-4566-a194-13ca982e27d0,7c474fe1-0c6f-4be3-b831-2fab4af32130,1759226812243235287,-2.277374,-0.152588,0.432968,0.006348,-0.553711,0.873047,0.1288617905463223,-31.58258417711578,-170.37696154054805,0.08040758967399597,-0.021747829392552376,0.2712656557559967,-0.9588932394981384
04216434-9060-4566-a194-13ca982e27d0,7c474fe1-0c6f-4be3-b831-2fab4af32130,1759226812252829287,-2.399445,0.335693,0.314713,-0.000977,-0.547852,0.880371,0.13522263690845504,-31.606541208350038,-170.3607765821471,0.08052293956279755,-0.02174987830221653,0.2714674770832062,-0.95882648229599
04216434-9060-4566-a194-13ca982e27d0,7c474fe1-0c6f-4be3-b831-2fab4af32130,1759226812262423287,-2.035141,0.272751,0.741959,0.007324,-0.546875,0.867676,0.13825831176726439,-31.629876032656217,-170.34836580413506,0.08061468601226807,-0.021770425140857697,0.27166247367858887,-0.9587631225585938
04216434-9060-4566-a194-13ca982e27d0,7c474fe1-0c6f-4be3-b831-2fab4af32130,1759226812273103287,-2.155304,-0.152588,0.497818,0.0,-0.543457,0.867676,0.13805207436120753,-31.64794267242861,-170.3446759337348,0.08064224570989609,-0.02179371379315853,0.27181276679039,-0.9587177038192749
04216434-9060-4566-a194-13ca982e27d0,7c474fe1-0c6f-4be3-b831-2fab4af32130,1759226812283780287,-1.913071,-0.21553,0.802994,-0.000977,-0.548828,0.882324,0.13423415739320466,-31.66805399206949,-170.34072385170376,0.08068013936281204,-0.02184930257499218,0.27197757363319397,-0.9586665034294128
04216434-9060-4566-a194-13ca982e27d0,7c474fe1-0c6f-4be3-b831-2fab4af32130,1759226812294457287,-2.096176,-0.577927,0.558853,-0.003418,-0.537109,0.871094,0.12902123980440236,-31.690121462560544,-170.33898351930108,0.08070243895053864,-0.021912705153226852,0.2721581757068634,-0.9586119055747986
04216434-9060-4566-a194-13ca982e27d0,7c474fe1-0c6f-4be3-b831-2fab4af32130,1759226812302446287,-1.972198,-0.579834,0.497818,0.003906,-0.54834,0.878418,0.1272977888149049,-31.726728653389717,-170.34170141978308,0.0806761234998703,-0.021946648135781288,0.27246373891830444,-0.9585263729095459
04216434-9060-4566-a194-13ca982e27d0,7c474fe1-0c6f-4be3-b831-2fab4af32130,1759226812310433287,-2.033234,-0.640869,0.558853,-0.00293,-0.544922,0.876953,0.12264009001384123,-31.744184389302337,-170.32131584051896,0.08085405081510544,-0.022046487778425217,0.27260255813598633,-0.958469569683075
04216434-9060-4566-a194-13ca982e27d0,7c474fe1-0c6f-4be3-b831-2fab4af32130,1759226812318420287,-2.340317,-0.398636,0.432968,0.002441,-0.547363,0.875,0.11877018238286996,-31.763677257412468,-170.33700221789874,0.08072797954082489,-0.022055383771657944,0.2727659344673157,-0.9584333300590515
04216434-9060-4566-a194-13ca982e27d0,7c474fe1-0c6f-4be3-b831-2fab4af32130,1759226812326407287,-2.096176,-0.154495,0.432968,0.01123,-0.53418,0.869141,0.11440818631039007,-31.780838776988034,-170.35916091612276,0.080549456179142,-0.022051282227039337,0.2729107141494751,-0.9584070444107056
04216434-9060-4566-a194-13ca982e27d0,7c474fe1-0c6f-4be3-b831-2fab4af32130,1759226812337094287,-1.787186,0.089645,0.314713,0.009277,-0.549805,0.875,0.11326912527714351,-31.800171626635365,-170.34841074892307,0.08063804358243942,-0.022100117057561874,0.2730695605278015,-0.9583531022071838
04216434-9060-4566-a194-13ca982e27d0,7c474fe1-0c6f-4be3-b831-2fab4af32130,1759226812347781287,-1.911163,0.030518,0.127792,0.013672,-0.549316,0.859375,0.10780120311912264,-31.81955963973816,-170.3488890164344,0.08064303547143936,-0.02215845137834549,0.2732279896736145,-0.9583060145378113
04216434-9060-4566-a194-13ca982e27d0,7c474fe1-0c6f-4be3-b831-2fab4af32130,1759226812358468287,-1.911163,-0.152588,-0.173569,0.000488,-0.530273,0.873047,0.1008678553056765,-31.832759814694327,-170.36859863057705,0.08049200475215912,-0.022178780287504196,0.27333736419677734,-0.9582868814468384
04216434-9060-4566-a194-13ca982e27d0,7c474fe1-0c6f-4be3-b831-2fab4af32130,1759226812369128287,-2.216339,0.213623,-0.417709,0.001953,-0.544922,0.858887,0.09778322575101002,-31.850994496350857,-170.38358839871913,0.08037012070417404,-0.022181596606969833,0.2734902501106262,-0.9582545161247253
04216434-9060-4566-a194-13ca982e27d0,7c474fe1-0c6f-4be3-b831-2fab4af32130,1759226812379787287,-2.033234,-0.030518,-0.417709,0.016602,-0.547363,0.872559,0.09415929675577647,-31.874173268750752,-170.40526304783359,0.08019271492958069,-0.022176483646035194,0.2736857235431671,-0.9582136869430542
04216434-9060-4566-a194-13ca982e27d0,7c474fe1-0c6f-4be3-b831-2fab4af32130,1759226812390446287,-2.277374,0.396729,-0.478745,0.004883,-0.55127,0.870117,0.08920698667195993,-31.894993483877133,-170.44350087731368,0.07988050580024719,-0.022141164168715477,0.2738637626171112,-0.9581896662712097
04216434-9060-4566-a194-13ca982e27d0,7c474fe1-0c6f-4be3-b831-2fab4af32130,1759226812401091287,-2.216339,0.823975,-0.478745,0.004883,-0.55127,0.877441,0.09001868180476809,-31.935341801800384,-170.49968336772187,0.07940048724412918,-0.022028211504220963,0.274212509393692,-0.9581324458122253
04216434-9060-4566-a194-13ca982e27d0,7c474fe1-0c6f-4be3-b831-2fab4af32130,1759226812411738287,-1.911163,0.823975,-0.600815,-0.004883,-0.539062,0.877441,0.09476728091149282,-31.95085287048632,-170.44655928985003,0.0798300951719284,-0.02212649956345558,0.27433526515960693,-0.9580593109130859
04216434-9060-4566-a194-13ca982e27d0,7c474fe1-0c6f-4be3-b831-2fab4af32130,1759226812422385287,-1.665115,1.554489,-0.360489,-0.003418,-0.558594,0.879883,0.10114386917656422,-31.969932820027612,-170.4097109229853,0.08011892437934875,-0.02217482030391693,0.274492084980011,-0.9579892158508301
04216434-9060-4566-a194-13ca982e27d0,7c474fe1-0c6f-4be3-b831-2fab4af32130,1759226812430410287,-1.544952,1.434326,-0.543594,-0.003906,-0.544922,0.885254,0.11180160765551457,-31.9820016981246,-170.4054402268023,0.0801265761256218,-0.022104449570178986,0.2745996117591858,-0.9579593539237976
04216434-9060-4566-a194-13ca982e27d0,7c474fe1-0c6f-4be3-b831-2fab4af32130,1759226812438434287,-1.424789,1.737595,-0.360489,0.0,-0.546875,0.875488,0.12994726732854875,-31.993606263883255,-170.37250069688895,0.08035600185394287,-0.02203989028930664,0.2747029662132263,-0.957912027835846
04216434-9060-4566-a194-13ca982e27d0,7c474fe1-0c6f-4be3-b831-2fab4af32130,1759226812446458287,-0.753403,1.9207,0.009537,-0.014648,-0.54248,0.893555,0.14323744336695451,-32.00056481802093,-170.35277440454124,0.08048756420612335,-0.02198101580142975,0.2747666835784912,-0.9578840136528015
04216434-9060-4566-a194-13ca982e27d0,7c474fe1-0c6f-4be3-b831-2fab4af32130,1759226812454482287,-0.875473,1.554489,0.314713,-0.004883,-0.540527,0.887207,0.1623474308816856,-32.004883038153494,-170.34885108801234,0.08047360926866531,-0.021833740174770355,0.2748154401779175,-0.957874596118927
04216434-9060-4566-a194-13ca982e27d0,7c474fe1-0c6f-4be3-b831-2fab4af32130,1759226812465128287,-0.507355,1.922607,0.432968,-0.003418,-0.542969,0.887207,0.18372534898000745,-32.00660855380583,-170.3321920984815,0.08056122064590454,-0.021696222946047783,0.2748417258262634,-0.9578627943992615
04216434-9060-4566-a194-13ca982e27d0,7c474fe1-0c6f-4be3-b831-2fab4af32130,1759226812475774287,-0.448227,1.066208,1.169205,-0.01416,-0.557129,0.868164,0.20286660513176388,-32.00659911142745,-170.30900831036334,0.08070909976959229,-0.02159181982278824,0.2748507261276245,-0.9578501582145691
04216434-9060-4566-a194-13ca982e27d0,7c474fe1-0c6f-4be3-b831-2fab4af32130,1759226812486420287,0.165939,1.066208,1.28746,-0.01709,-0.543945,0.868652,0.2260126798379694,-32.00956222745011,-170.27839247866393,0.08090884238481522,-0.021473905071616173,0.2748860716819763,-0.957825779914856
04216434-9060-4566-a194-13ca982e27d0,7c474fe1-0c6f-4be3-b831-2fab4af32130,1759226812494424287,-0.080109,0.640869,2.080917,-0.020508,-0.536621,0.864258,0.270451859668768,-32.009465532209035,-170.1866401110633,0.08156915754079819,-0.021322499960660934,0.2748996317386627,-0.9577692747116089
04216434-9060-4566-a194-13ca982e27d0,7c474fe1-0c6f-4be3-b831-2fab4af32130,1759226812502431287,-0.44632,0.213623,2.145767,-0.01123,-0.530762,0.875977,0.2922102390982694,-32.007493835502615,-170.10176481450324,0.08222679048776627,-0.021342821419239044,0.2748829126358032,-0.9577173590660095
04216434-9060-4566-a194-13ca982e27d0,7c474fe1-0c6f-4be3-b831-2fab4af32130,1759226812510438287,-0.324249,-0.152588,2.878189,-0.010742,-0.549316,0.856934,0.3067671429180942,-32.01103762599658,-170.0338668783048,0.08275850117206573,-0.021386636421084404,0.2749103307723999,-0.9576627612113953
04216434-9060-4566-a194-13ca982e27d0,7c474fe1-0c6f-4be3-b831-2fab4af32130,1759226812518445287,-0.753403,-0.032425,3.12233,0.003906,-0.536133,0.86084,0.31975832441235963,-32.01673304138784,-169.99598011396756,0.08304262906312943,-0.021373163908720016,0.2749602496623993,-0.9576241374015808
04216434-9060-4566-a194-13ca982e27d0,7c474fe1-0c6f-4be3-b831-2fab4af32130,1759226812529126287,-0.934601,-0.274658,3.183365,-0.007812,-0.534668,0.862793,0.33750117519178086,-32.024092660448495,-169.956322231183,0.08332973718643188,-0.02132550999522209,0.27502724528312683,-0.9575809836387634
04216434-9060-4566-a194-13ca982e27d0,7c474fe1-0c6f-4be3-b831-2fab4af32130,1759226812539807287,-1.178741,-0.396729,3.240585,-0.013672,-0.529297,0.867676,0.35388769939885834,-32.03049906244932,-169.9168622407075,0.08361862599849701,-0.021288052201271057,0.27508535981178284,-0.957539975643158
04216434-9060-4566-a194-13ca982e27d0,7c474fe1-0c6f-4be3-b831-2fab4af32130,1759226812550488287,-1.119614,-0.272751,3.36647,-0.007324,-0.529297,0.871582,0.3684356496106455,-32.036744168523846,-169.91824197583603,0.0835706889629364,-0.021167831495404243,0.2751484215259552,-0.9575286507606506
04216434-9060-4566-a194-13ca982e27d0,7c474fe1-0c6f-4be3-b831-2fab4af32130,1759226812561708287,-1.361847,-0.213623,3.305435,-0.003418,-0.544922,0.860352,0.3816814622956594,-32.045252256985265,-169.91807306995625,0.08353825658559799,-0.021063892170786858,0.2752291262149811,-0.9575105905532837
04216434-9060-4566-a194-13ca982e27d0,7c474fe1-0c6f-4be3-b831-2fab4af32130,1759226812572928287,-1.850128,-0.457764,3.488541,-0.005371,-0.533203,0.866699,0.3948871262788105,-32.06119912168323,-169.9042656822443,0.08361806720495224,-0.020998608320951462,0.27536943554878235,-0.9574647545814514
04216434-9060-4566-a194-13ca982e27d0,7c474fe1-0c6f-4be3-b831-2fab4af32130,1759226812584148287,-1.972198,-0.335693,3.183365,-0.000977,-0.540039,0.867187,0.40527601308639655,-32.072658965381635,-169.85250711740412,0.08402278274297714,-0.021044785156846046,0.2754632830619812,-0.9574012756347656
04216434-9060-4566-a194-13ca982e27d0,7c474fe1-0c6f-4be3-b831-2fab4af32130,1759226812594251287,-2.643585,-0.274658,2.569199,0.01123,-0.534668,0.864746,0.42418601131941264,-32.10667010282648,-169.79521537836084,0.08444763720035553,-0.021050192415714264,0.2757507562637329,-0.9572809934616089
04216434-9060-4566-a194-13ca982e27d0,7c474fe1-0c6f-4be3-b831-2fab4af32130,1759226812604354287,-2.338409,-0.152588,2.264023,0.004395,-0.538086,0.868164,0.43079469105280066,-32.12383326786965,-169.75251498018432,0.08478420227766037,-0.021110747009515762,0.27589112520217896,-0.9572094678878784
04216434-9060-4566-a194-13ca982e27d0,7c474fe1-0c6f-4be3-b831-2fab4af32130,1759226812614457287,-2.70462,0.030518,1.897812,-0.006348,-0.545898,0.868652,0.43933662888777825,-32.144461680941696,-169.70747036177417,0.08513476699590683,-0.02116354927420616,0.27606141567230225,-0.95712810754776
04216434-9060-4566-a194-13ca982e27d0,7c474fe1-0c6f-4be3-b831-2fab4af32130,1759226812622456287,-2.584457,0.333786,1.897812,-0.010254,-0.538086,0.85791,0.4521798137555383,-32.16322871620093,-169.67899790217203,0.08533694595098495,-0.021139206364750862,0.27622243762016296,-0.957064151763916
04216434-9060-4566-a194-13ca982e27d0,7c474fe1-0c6f-4be3-b831-2fab4af32130,1759226812630455287,-2.826691,0.274658,1.35231,-0.007324,-0.543457,0.866699,0.4607964515996821,-32.185106399593664,-169.6776039554908,0.0853223204612732,-0.02108731120824814,0.2764112651348114,-0.9570121169090271
04216434-9060-4566-a194-13ca982e27d0,7c474fe1-0c6f-4be3-b831-2fab4af32130,1759226812638454287,-2.70462,0.152588,1.28746,-0.006836,-0.537109,0.868652,0.468011399472498,-32.20621929454724,-169.70370218951246,0.08508165180683136,-0.020980194211006165,0.2765977084636688,-0.9569820165634155
04216434-9060-4566-a194-13ca982e27d0,7c474fe1-0c6f-4be3-b831-2fab4af32130,1759226812646453287,-2.889633,0.089645,1.169205,-0.009277,-0.547363,0.882324,0.47543606063314076,-32.22744129149679,-169.7031331697308,0.085063137114048,-0.020935742184519768,0.27678030729293823,-0.9569318294525146
04216434-9060-4566-a194-13ca982e27d0,7c474fe1-0c6f-4be3-b831-2fab4af32130,1759226812654450287,-2.584457,-0.089645,1.169205,0.000488,-0.544922,0.877441,0.47959429496814543,-32.247560652489405,-169.69322603906323,0.08513074368238449,-0.020940300077199936,0.27694955468177795,-0.9568767547607422
04216434-9060-4566-a194-13ca982e27d0,7c474fe1-0c6f-4be3-b831-2fab4af32130,1759226812662447287,-2.401352,0.272751,0.986099,0.006348,-0.527832,0.867676,0.4844771234067812,-32.26303558973966,-169.67481970134565,0.08526872098445892,-0.020955845713615417,0.2770790159702301,-0.9568266272544861
04216434-9060-4566-a194-13ca982e27d0,7c474fe1-0c6f-4be3-b831-2fab4af32130,1759226812670444287,-2.46048,0.457764,1.169205,-0.001465,-0.546387,0.873535,0.4909060455464082,-32.283730020424535,-169.6529526785428,0.08543049544095993,-0.020970895886421204,0.27725255489349365,-0.9567615985870361
04216434-9060-4566-a194-13ca982e27d0,7c474fe1-0c6f-4be3-b831-2fab4af32130,1759226812678441287,-2.948761,0.457764,1.409531,-0.007324,-0.554199,0.87793,0.5001999368627078,-32.30676961710874,-169.62860327555234,0.08560541272163391,-0.02096990868449211,0.27744734287261963,-0.9566895365715027
04216434-9060-4566-a194-13ca982e27d0,7c474fe1-0c6f-4be3-b831-2fab4af32130,1759226812689101287,-2.826691,0.396729,1.23024,-0.009766,-0.544922,0.859375,0.511025980220133,-32.331663367082115,-169.6362093878721,0.08550931513309479,-0.02088022604584694,0.2776646018028259,-0.9566370248794556
04216434-9060-4566-a194-13ca982e27d0,7c474fe1-0c6f-4be3-b831-2fab4af32130,1759226812699761287,-3.255844,0.21553,1.535416,-0.002441,-0.549805,0.872559,0.5225746056967495,-32.356628461283954,-169.623957831886,0.08557717502117157,-0.02083270065486431,0.27787935733795166,-0.9565696120262146
04216434-9060-4566-a194-13ca982e27d0,7c474fe1-0c6f-4be3-b831-2fab4af32130,1759226812710421287,-3.498077,0.457764,1.718521,-0.002441,-0.541504,0.860352,0.534762890157465,-32.38869671480501,-169.58171349378216,0.08589192479848862,-0.020858164876699448,0.2781484127044678,-0.9564626216888428
04216434-9060-4566-a194-13ca982e27d0,7c474fe1-0c6f-4be3-b831-2fab4af32130,1759226812721100287,-3.376007,0.213623,1.592636,-0.003418,-0.540527,0.865234,0.5446051490542045,-32.42035877594765,-169.5606139070373,0.08603587746620178,-0.020851735025644302,0.27841615676879883,-0.9563719034194946
04216434-9060-4566-a194-13ca982e27d0,7c474fe1-0c6f-4be3-b831-2fab4af32130,1759226812731779287,-3.925323,0.396729,1.535416,-0.014648,-0.561035,0.868164,0.5549546596185625,-32.455599275257946,-169.54299861736808,0.08614849299192429,-0.020835479721426964,0.27871474623680115,-0.9562751650810242
04216434-9060-4566-a194-13ca982e27d0,7c474fe1-0c6f-4be3-b831-2fab4af32130,1759226812742458287,-3.68309,0.577927,1.23024,-0.003906,-0.546875,0.865723,0.567668766416078,-32.48797571330388,-169.5279601405737,0.08623452484607697,-0.020791109651327133,0.27899169921875,-0.9561875462532043
04216434-9060-4566-a194-13ca982e27d0,7c474fe1-0c6f-4be3-b831-2fab4af32130,1759226812750474287,-3.925323,0.396729,1.104355,0.0,-0.550293,0.862305,0.5796480013834323,-32.546869231620164,-169.4864630928824,0.08653595298528671,-0.020838115364313126,0.27948445081710815,-0.9560153484344482
04216434-9060-4566-a194-13ca982e27d0,7c474fe1-0c6f-4be3-b831-2fab4af32130,1759226812758491287,-3.681183,0.213623,0.802994,0.001465,-0.55127,0.87207,0.5825772570317206,-32.5799468088043,-169.52142396830627,0.08622834086418152,-0.020754119381308556,0.2797688841819763,-0.9559617638587952
04216434-9060-4566-a194-13ca982e27d0,7c474fe1-0c6f-4be3-b831-2fab4af32130,1759226812766508287,-3.620148,0.030518,0.680923,-0.015625,-0.555664,0.875488,0.5893402853573825,-32.608583691888185,-169.52176089792843,0.08620139211416245,-0.020719144493341446,0.2800128757953644,-0.9558934569358826
04216434-9060-4566-a194-13ca982e27d0,7c474fe1-0c6f-4be3-b831-2fab4af32130,1759226812774525287,-3.377914,0.089645,0.558853,-0.013672,-0.544434,0.864746,0.5911911650939293,-32.634095804104746,-169.4681698918564,0.08663706481456757,-0.020854586735367775,0.2802172899246216,-0.9557912349700928
04216434-9060-4566-a194-13ca982e27d0,7c474fe1-0c6f-4be3-b831-2fab4af32130,1759226812785208287,-3.435135,0.089645,0.253677,-0.004883,-0.559082,0.878418,0.5899851153437584,-32.66143845822861,-169.45695002442946,0.08672626316547394,-0.020913466811180115,0.28044232726097107,-0.9557158350944519
04216434-9060-4566-a194-13ca982e27d0,7c474fe1-0c6f-4be3-b831-2fab4af32130,1759226812795891287,-3.314972,0.152588,-0.112534,-0.005371,-0.546875,0.869629,0.5875687787333496,-32.68697954027641,-169.43066573832462,0.08694452792406082,-0.02101796865463257,0.2806486487388611,-0.9556331038475037
04216434-9060-4566-a194-13ca982e27d0,7c474fe1-0c6f-4be3-b831-2fab4af32130,1759226812806574287,-3.377914,0.577927,-0.295639,0.004395,-0.537598,0.866699,0.5861714498948346,-32.716099769569766,-169.37197069164097,0.08742955327033997,-0.021196313202381134,0.28087952733039856,-0.9555171132087708
04216434-9060-4566-a194-13ca982e27d0,7c474fe1-0c6f-4be3-b831-2fab4af32130,1759226812817209287,-3.681183,0.823975,-0.478745,0.010254,-0.546387,0.868652,0.5904289120170587,-32.74335601907623,-169.38399837920844,0.08731146156787872,-0.021152794361114502,0.2811122238636017,-0.9554603695869446
04216434-9060-4566-a194-13ca982e27d0,7c474fe1-0c6f-4be3-b831-2fab4af32130,1759226812827844287,-3.925323,1.190186,-0.84877,0.000488,-0.553711,0.862305,0.5899561203313984,-32.774247907559655,-169.41001894497657,0.08708731830120087,-0.021117160096764565,0.28137415647506714,-0.95540452003479
04216434-9060-4566-a194-13ca982e27d0,7c474fe1-0c6f-4be3-b831-2fab4af32130,1759226812838479287,-3.68309,1.066208,-0.84877,-0.022461,-0.557129,0.867676,0.591783156854407,-32.80534060423762,-169.44451298338637,0.08678685873746872,-0.021041572093963623,0.28164106607437134,-0.9553548097610474
04216434-9060-4566-a194-13ca982e27d0,7c474fe1-0c6f-4be3-b831-2fab4af32130,1759226812849139287,-3.803253,1.251221,-1.272202,-0.018555,-0.556641,0.865723,0.6081573365243907,-32.87032890804919,-169.40009176575296,0.08709927648305893,-0.021065345034003258,0.28218695521354675,-0.9551646709442139
04216434-9060-4566-a194-13ca982e27d0,7c474fe1-0c6f-4be3-b831-2fab4af32130,1759226812859800287,-3.255844,1.680374,-1.272202,-0.012695,-0.567871,0.865234,0.6140866074479872,-32.90441133532812,-169.40035574223367,0.0870731845498085,-0.021042078733444214,0.2824755311012268,-0.9550821781158447
04216434-9060-4566-a194-13ca982e27d0,7c474fe1-0c6f-4be3-b831-2fab4af32130,1759226812870461287,-3.376007,1.678467,-1.031876,-0.015137,-0.567871,0.849121,0.6252545293028801,-32.93698391677525,-169.3939529903176,0.08709009736776352,-0.020990416407585144,0.28275424242019653,-0.9549992680549622
04216434-9060-4566-a194-13ca982e27d0,7c474fe1-0c6f-4be3-b831-2fab4af32130,1759226812878456287,-3.255844,1.79863,-1.214981,-0.01709,-0.562988,0.857422,0.6361764350626284,-32.9672061783793,-169.37583519529394,0.08720582723617554,-0.020967939868569374,0.2830110490322113,-0.9549130201339722
04216434-9060-4566-a194-13ca982e27d0,7c474fe1-0c6f-4be3-b831-2fab4af32130,1759226812886449287,-3.376007,1.800537,-1.703262,-0.009277,-0.556641,0.846191,0.6455062624776051,-33.003061761846965,-169.3892227512958,0.08706125617027283,-0.020885292440652847,0.28331905603408813,-0.9548373818397522
04216434-9060-4566-a194-13ca982e27d0,7c474fe1-0c6f-4be3-b831-2fab4af32130,1759226812894442287,-3.435135,1.737595,-1.638412,-0.016113,-0.565918,0.853027,0.6539363268331236,-33.03756591702359,-169.40868661760368,0.08686868846416473,-0.020794052630662918,0.28361639380455017,-0.9547686576843262
04216434-9060-4566-a194-13ca982e27d0,7c474fe1-0c6f-4be3-b831-2fab4af32130,1759226812902435287,-3.437042,1.617432,-1.577377,-0.009277,-0.567871,0.858887,0.6652790969139845,-33.06881928051864,-169.4244427702302,0.0867006778717041,-0.020685097202658653,0.28388816118240356,-0.9547054767608643
04216434-9060-4566-a194-13ca982e27d0,7c474fe1-0c6f-4be3-b831-2fab4af32130,1759226812913100287,-3.56102,1.432419,-1.638412,-0.02832,-0.55957,0.85498,0.6749699789145639,-33.10204777054238,-169.4408083621636,0.08653108775615692,-0.02058986946940422,0.28417515754699707,-0.9546375870704651
04216434-9060-4566-a194-13ca982e27d0,7c474fe1-0c6f-4be3-b831-2fab4af32130,1759226812923765287,-3.744125,1.432419,-1.577377,-0.01416,-0.54834,0.856445,0.6869263462816988,-33.13417707278867,-169.45576168283154,0.08636792004108429,-0.020478354766964912,0.28445443511009216,-0.954571545124054
04216434-9060-4566-a194-13ca982e27d0,7c474fe1-0c6f-4be3-b831-2fab4af32130,1759226812934430287,-3.681183,1.00708,-1.577377,-0.023926,-0.564453,0.851562,0.6941358630546917,-33.16788311844216,-169.4761528497904,0.08617076277732849,-0.020394038408994675,0.28474417328834534,-0.9545047879219055
04216434-9060-4566-a194-13ca982e27d0,7c474fe1-0c6f-4be3-b831-2fab4af32130,1759226812945097287,-3.744125,0.886917,-1.272202,-0.012207,-0.566406,0.853516,0.7039797283312917,-33.23463563010142,-169.445301271301,0.08638455718755722,-0.020441066473722458,0.2853018641471863,-0.9543179273605347
04216434-9060-4566-a194-13ca982e27d0,7c474fe1-0c6f-4be3-b831-2fab4af32130,1759226812955765287,-3.61824,1.066208,-1.520157,-0.010742,-0.562988,0.857422,0.7104420366195319,-33.26880543687701,-169.45582975775912,0.08627118170261383,-0.020387813448905945,0.28559306263923645,-0.9542422294616699
04216434-9060-4566-a194-13ca982e27d0,7c474fe1-0c6f-4be3-b831-2fab4af32130,1759226812966433287,-3.56102,0.455856,-1.337051,-0.02002,-0.578125,0.848144,0.7163385818328323,-33.305716825737484,-169.47173708521888,0.08611363917589188,-0.020327959209680557,0.2859075963497162,-0.9541634917259216
04216434-9060-4566-a194-13ca982e27d0,7c474fe1-0c6f-4be3-b831-2fab4af32130,1759226812977082287,-3.314972,0.152588,-0.84877,-0.021973,-0.55957,0.847656,0.7227958361318586,-33.3327362715903,-169.47234909858048,0.08608480542898178,-0.02029380574822426,0.2861374318599701,-0.9540979862213135
04216434-9060-4566-a194-13ca982e27d0,7c474fe1-0c6f-4be3-b831-2fab4af32130,1759226812987734287,-3.255844,-0.272751,-0.543594,-0.030762,-0.565918,0.853516,0.724882892419972,-33.36065209278688,-169.48055131324168,0.08600343018770218,-0.020277786999940872,0.2863728106021881,-0.9540349841117859
04216434-9060-4566-a194-13ca982e27d0,7c474fe1-0c6f-4be3-b831-2fab4af32130,1759226812998386287,-3.376007,-0.091553,-0.360489,-0.037598,-0.564941,0.855957,0.7294462562373945,-33.39144397793664,-169.4979097379763,0.08583880960941315,-0.020220454782247543,0.28663554787635803,-0.9539721608161926
04216434-9060-4566-a194-13ca982e27d0,7c474fe1-0c6f-4be3-b831-2fab4af32130,1759226813006408287,-3.744125,-0.886917,0.497818,-0.027344,-0.570801,0.854004,0.7449678585408638,-33.452026733846324,-169.49770477616218,0.08578450232744217,-0.02013907954096794,0.2871512770652771,-0.9538236260414124
04216434-9060-4566-a194-13ca982e27d0,7c474fe1-0c6f-4be3-b831-2fab4af32130,1759226813014431287,-3.803253,-1.373291,0.921249,-0.019531,-0.563965,0.85498,0.7451451658447505,-33.486564964316464,-169.5037274400962,0.0857241153717041,-0.02014946937561035,0.28743982315063477,-0.9537419676780701
04216434-9060-4566-a194-13ca982e27d0,7c474fe1-0c6f-4be3-b831-2fab4af32130,1759226813022454287,-3.56102,-1.375198,1.23024,-0.018555,-0.559082,0.859863,0.7461959485031416,-33.51571389744573,-169.47687361003412,0.08593668043613434,-0.020230896770954132,0.28767839074134827,-0.9536491632461548
04216434-9060-4566-a194-13ca982e27d0,7c474fe1-0c6f-4be3-b831-2fab4af32130,1759226813030477287,-3.925323,-1.251221,1.409531,-0.026367,-0.564941,0.860352,0.7501233726228248,-33.54734711647882,-169.44289776550448,0.0862005203962326,-0.020308341830968857,0.2879384756088257,-0.9535452127456665
04216434-9060-4566-a194-13ca982e27d0,7c474fe1-0c6f-4be3-b831-2fab4af32130,1759226813041114287,-3.803253,-1.678467,1.592636,-0.016602,-0.563477,0.842773,0.748336454913432,-33.57914133270603,-169.37405330755885,0.0867687240242958,-0.020521314814686775,0.2881893217563629,-0.9534133076667786
04216434-9060-4566-a194-13ca982e27d0,7c474fe1-0c6f-4be3-b831-2fab4af32130,1759226813051751287,-3.744125,-1.249313,1.897812,-0.017578,-0.566895,0.853516,0.7502369317934475,-33.61348970553874,-169.33266528654246,0.0870983675122261,-0.020636826753616333,0.28846898674964905,-0.9532961845397949
04216434-9060-4566-a194-13ca982e27d0,7c474fe1-0c6f-4be3-b831-2fab4af32130,1759226813062388287,-3.864288,-1.068115,1.962662,-0.032227,-0.581055,0.853027,0.7594265251706133,-33.65083597173812,-169.3358213088038,0.08703815937042236,-0.02058204635977745,0.2887870967388153,-0.9532065391540527
04216434-9060-4566-a194-13ca982e27d0,7c474fe1-0c6f-4be3-b831-2fab4af32130,1759226813073069287,-3.68309,-0.886917,2.023697,-0.008301,-0.573242,0.852539,0.7622655778842617,-33.68452795244158,-169.31572416291013,0.08718838542699814,-0.02063584141433239,0.28906577825546265,-0.9531071782112122
04216434-9060-4566-a194-13ca982e27d0,7c474fe1-0c6f-4be3-b831-2fab4af32130,1759226813083748287,-4.049301,-1.066208,1.962662,-0.018066,-0.581543,0.849609,0.7678303973049079,-33.72023518507158,-169.2938675879207,0.08734571933746338,-0.02067311480641365,0.28936293721199036,-0.9530017971992493
04216434-9060-4566-a194-13ca982e27d0,7c474fe1-0c6f-4be3-b831-2fab4af32130,1759226813094427287,-4.171371,-1.192093,2.145767,-0.015625,-0.576172,0.849121,0.7733914763992686,-33.75995134428925,-169.27723738203355,0.08745835721492767,-0.020700529217720032,0.28969433903694153,-0.952890157699585
04216434-9060-4566-a194-13ca982e27d0,7c474fe1-0c6f-4be3-b831-2fab4af32130,1759226813105107287,-4.169464,-1.983643,2.264023,-0.00293,-0.572754,0.86084,0.7685733267466631,-33.83795235582383,-169.19312152321731,0.08814699947834015,-0.021015886217355728,0.2903236150741577,-0.9526282548904419
04216434-9060-4566-a194-13ca982e27d0,7c474fe1-0c6f-4be3-b831-2fab4af32130,1759226813115786287,-3.986359,-2.227783,2.450943,-0.013184,-0.583984,0.854492,0.762332400101903,-33.87601853272502,-169.16115062360558,0.08841735124588013,-0.021179422736167908,0.29062923789024353,-0.9525063633918762
04216434-9060-4566-a194-13ca982e27d0,7c474fe1-0c6f-4be3-b831-2fab4af32130,1759226813126465287,-3.435135,-2.534866,2.328873,-0.018555,-0.574707,0.852539,0.7573433820589077,-33.90878210034496,-169.13568291881174,0.0886320024728775,-0.021311918273568153,0.2908928692340851,-0.9524030089378357
04216434-9060-4566-a194-13ca982e27d0,7c474fe1-0c6f-4be3-b831-2fab4af32130,1759226813134444287,-3.620148,-2.716064,2.695084,-0.013184,-0.588379,0.852051,0.7459625199264328,-33.9426631530927,-169.1220894117763,0.08876386284828186,-0.021468378603458405,0.29116299748420715,-0.9523046612739563
04216434-9060-4566-a194-13ca982e27d0,7c474fe1-0c6f-4be3-b831-2fab4af32130,1759226813142425287,-3.255844,-3.023148,2.080917,-0.003906,-0.577637,0.849121,0.7313094019827482,-33.977537488283765,-169.0734257054848,0.08919519186019897,-0.021742071956396103,0.29143214225769043,-0.9521757960319519
04216434-9060-4566-a194-13ca982e27d0,7c474fe1-0c6f-4be3-b831-2fab4af32130,1759226813150406287,-3.314972,-2.7771,2.569199,0.005371,-0.586426,0.846191,0.7168052008039271,-34.00809894355673,-169.03334955057224,0.08955603837966919,-0.0219893641769886,0.29166701436042786,-0.9520643353462219
04216434-9060-4566-a194-13ca982e27d0,7c474fe1-0c6f-4be3-b831-2fab4af32130,1759226813158387287,-3.072739,-2.656937,2.389908,0.010254,-0.580566,0.858398,0.7010039689685003,-34.038693308306605,-169.01625137595667,0.08972927927970886,-0.022189069539308548,0.2919054329395294,-0.9519703388214111
04216434-9060-4566-a194-13ca982e27d0,7c474fe1-0c6f-4be3-b831-2fab4af32130,1759226813169060287,-2.946854,-2.351761,2.206802,0.007813,-0.582031,0.865234,0.6832392281376282,-34.065599312020716,-168.99436625857882,0.08994841575622559,-0.02241433411836624,0.2921106815338135,-0.9518814086914062
04216434-9060-4566-a194-13ca982e27d0,7c474fe1-0c6f-4be3-b831-2fab4af32130,1759226813179733287,-2.70462,-2.105713,1.962662,0.007324,-0.597656,0.858887,0.6687589440571938,-34.089662965129754,-168.97123474375698,0.09017039090394974,-0.022613229230046272,0.29229456186294556,-0.9517992734909058
04216434-9060-4566-a194-13ca982e27d0,7c474fe1-0c6f-4be3-b831-2fab4af32130,1759226813190406287,-2.033234,-1.983643,1.592636,0.010742,-0.588379,0.861328,0.6519953494948448,-34.11478974159487,-168.9622405825749,0.09028048813343048,-0.022795937955379486,0.2924882173538208,-0.9517249464988708
04216434-9060-4566-a194-13ca982e27d0,7c474fe1-0c6f-4be3-b831-2fab4af32130,1759226813201070287,-1.850128,-1.434326,0.864029,0.016113,-0.576172,0.863281,0.6126030609126798,-34.148871307767806,-168.96383516860405,0.09035787731409073,-0.02314683608710766,0.29274043440818787,-0.9516316056251526
04216434-9060-4566-a194-13ca982e27d0,7c474fe1-0c6f-4be3-b831-2fab4af32130,1759226813211735287,-1.361847,-0.518799,0.192642,0.009277,-0.591309,0.862305,0.5936589951899762,-34.163440316212494,-168.96877490347484,0.09036103636026382,-0.02330341562628746,0.2928474545478821,-0.9515945315361023
04216434-9060-4566-a194-13ca982e27d0,7c474fe1-0c6f-4be3-b831-2fab4af32130,1759226813222400287,-0.875473,-0.398636,-0.543594,0.020508,-0.58252,0.872559,0.5796273452658409,-34.15993341947198,-168.98792418848143,0.09023888409137726,-0.023368149995803833,0.29281118512153625,-0.9516156911849976
04216434-9060-4566-a194-13ca982e27d0,7c474fe1-0c6f-4be3-b831-2fab4af32130,1759226813230525287,-0.934601,-0.274658,-1.150131,0.004883,-0.578125,0.856445,0.5634501143640227,-34.1610395425437,-169.02716248237087,0.08995404839515686,-0.023403126746416092,0.2928156554698944,-0.9516404271125793
04216434-9060-4566-a194-13ca982e27d0,7c474fe1-0c6f-4be3-b831-2fab4af32130,1759226813238652287,-0.56839,-0.091553,-1.520157,0.013672,-0.580566,0.861816,0.551048743714404,-34.15984151554707,-169.00733340121042,0.09015075117349625,-0.023555811494588852,0.2927919030189514,-0.9516253471374512
04216434-9060-4566-a194-13ca982e27d0,7c474fe1-0c6f-4be3-b831-2fab4af32130,1759226813246779287,-0.265121,0.272751,-2.191544,0.008789,-0.563477,0.865723,0.533136748034378,-34.159301301573045,-168.99330776577045,0.0903131440281868,-0.023739956319332123,0.2927704155445099,-0.9516119956970215
04216434-9060-4566-a194-13ca982e27d0,7c474fe1-0c6f-4be3-b831-2fab4af32130,1759226813254906287,-0.080109,0.88501,-2.79808,0.0,-0.568359,0.840332,0.5122021572924002,-34.15470010499991,-169.02226518193524,0.09012745320796967,-0.023836102336645126,0.2927217483520508,-0.9516421556472778
04216434-9060-4566-a194-13ca982e27d0,7c474fe1-0c6f-4be3-b831-2fab4af32130,1759226813265438287,-0.263214,0.88501,-3.591537,0.005859,-0.564941,0.839844,0.49393767055159493,-34.15452254088117,-169.06550233291242,0.08981508016586304,-0.023877190425992012,0.292714923620224,-0.9516727924346924
04216434-9060-4566-a194-13ca982e27d0,7c474fe1-0c6f-4be3-b831-2fab4af32130,1759226813275970287,-0.143051,1.493454,-3.530502,0.0,-0.556641,0.848633,0.4826397951184127,-34.153081570445956,-169.11931127438567,0.08939745277166367,-0.02383241429924965,0.29270532727241516,-0.9517161846160889
04216434-9060-4566-a194-13ca982e27d0,7c474fe1-0c6f-4be3-b831-2fab4af32130,1759226813286502287,-0.263214,1.800537,-4.079819,-0.010742,-0.571777,0.854492,0.46842556518554257,-34.15464564507138,-169.18242498252758,0.08890914171934128,-0.023790504783391953,0.29272037744522095,-0.9517583250999451
04216434-9060-4566-a194-13ca982e27d0,7c474fe1-0c6f-4be3-b831-2fab4af32130,1759226813297131287,-1.361847,1.800537,-4.327774,-0.007324,-0.557617,0.849121,0.45057519440009425,-34.168654571280875,-169.33377206123143,0.08769383281469345,-0.023563150316476822,0.2928542196750641,-0.951835572719574
04216434-9060-4566-a194-13ca982e27d0,7c474fe1-0c6f-4be3-b831-2fab4af32130,1759226813307762287,-1.361847,1.678467,-4.018784,-0.01123,-0.5625,0.848144,0.4453059780179131,-34.176093064192926,-169.32547324708892,0.08777421712875366,-0.02363397181034088,0.29291024804115295,-0.9518091678619385
04216434-9060-4566-a194-13ca982e27d0,7c474fe1-0c6f-4be3-b831-2fab4af32130,1759226813318393287,-1.913071,2.046585,-3.961563,-0.020996,-0.564453,0.829102,0.4466371732650346,-34.190140721905344,-169.30072519611159,0.08797255903482437,-0.02369723841547966,0.2930228114128113,-0.951754629611969
04216434-9060-4566-a194-13ca982e27d0,7c474fe1-0c6f-4be3-b831-2fab4af32130,1759226813329071287,-2.155304,1.739502,-3.286362,-0.017578,-0.559082,0.84375,0.4450194990447994,-34.20516583875839,-169.31102243788845,0.08788709342479706,-0.023696163669228554,0.2931484580039978,-0.9517238736152649
04216434-9060-4566-a194-13ca982e27d0,7c474fe1-0c6f-4be3-b831-2fab4af32130,1759226813339752287,-2.218246,1.554489,-3.168106,-0.017578,-0.568359,0.84668,0.45068865565251565,-34.22500738491963,-169.3190768382554,0.08780030906200409,-0.02364407852292061,0.2933192253112793,-0.9516805410385132
04216434-9060-4566-a194-13ca982e27d0,7c474fe1-0c6f-4be3-b831-2fab4af32130,1759226813350433287,-2.584457,1.615524,-3.042221,-0.022949,-0.575684,0.852051,0.45936166136859713,-34.24484850864543,-169.3256414646486,0.0877181887626648,-0.023570841178297997,0.2934919595718384,-0.9516366720199585
04216434-9060-4566-a194-13ca982e27d0,7c474fe1-0c6f-4be3-b831-2fab4af32130,1759226813358420287,-3.131866,1.617432,-1.703262,-0.033691,-0.561035,0.833008,0.4833081651622088,-34.297003324223716,-169.38060010108939,0.08718619495630264,-0.023272011429071426,0.293954461812973,-0.9515501856803894
04216434-9060-4566-a194-13ca982e27d0,7c474fe1-0c6f-4be3-b831-2fab4af32130,1759226813366407287,-3.56102,1.310349,-1.638412,-0.02002,-0.576172,0.831543,0.49340724753273707,-34.331219992867425,-169.40523999230388,0.08694632351398468,-0.023151658475399017,0.2942511737346649,-0.9514833688735962
04216434-9060-4566-a194-13ca982e27d0,7c474fe1-0c6f-4be3-b831-2fab4af32130,1759226813374394287,-4.049301,1.249313,-1.394272,-0.008789,-0.563965,0.834961,0.5018873191151685,-34.366283869587825,-169.434506939261,0.08667194098234177,-0.023033402860164642,0.29455456137657166,-0.9514173865318298
04216434-9060-4566-a194-13ca982e27d0,7c474fe1-0c6f-4be3-b831-2fab4af32130,1759226813382381287,-4.171371,1.066208,-0.905991,-0.027832,-0.573242,0.848144,0.5154680516818323,-34.40258414956752,-169.45648411961818,0.08644460141658783,-0.02289237640798092,0.294870525598526,-0.9513435959815979
04216434-9060-4566-a194-13ca982e27d0,7c474fe1-0c6f-4be3-b831-2fab4af32130,1759226813393073287,-4.232407,0.398636,-0.78392,-0.035156,-0.578613,0.846191,0.527520840935114,-34.437928022942295,-169.48141478782173,0.0861968919634819,-0.022755581885576248,0.2951779067516327,-0.951274037361145
04216434-9060-4566-a194-13ca982e27d0,7c474fe1-0c6f-4be3-b831-2fab4af32130,1759226813403765287,-3.925323,0.152588,-0.360489,-0.015625,-0.571777,0.854004,0.5304589965536332,-34.47188244455222,-169.48448883390773,0.08615446090698242,-0.022749613970518112,0.2954625189304352,-0.9511896371841431
04216434-9060-4566-a194-13ca982e27d0,7c474fe1-0c6f-4be3-b831-2fab4af32130,1759226813414457287,-4.108429,-0.274658,-0.055313,-0.045898,-0.581543,0.857422,0.5441037443991165,-34.50675774233227,-169.44032365641215,0.08647619932889938,-0.022777404636144638,0.2957534193992615,-0.9510693550109863
04216434-9060-4566-a194-13ca982e27d0,7c474fe1-0c6f-4be3-b831-2fab4af32130,1759226813425125287,-4.049301,-0.520706,0.127792,-0.012695,-0.585938,0.859375,0.548870384317567,-34.542346265012256,-169.44973723823134,0.0863758772611618,-0.022741250693798065,0.2960541546344757,-0.9509857892990112
04216434-9060-4566-a194-13ca982e27d0,7c474fe1-0c6f-4be3-b831-2fab4af32130,1759226813435793287,-3.925323,-0.946045,0.375748,-0.016113,-0.586914,0.850586,0.5485825970943039,-34.578971355663604,-169.45317767569964,0.08633788675069809,-0.022763250395655632,0.29635846614837646,-0.9508939385414124
04216434-9060-4566-a194-13ca982e27d0,7c474fe1-0c6f-4be3-b831-2fab4af32130,1759226813446461287,-3.681183,-0.640869,-0.055313,-0.02002,-0.575684,0.84375,0.5455471739186196,-34.61171936951321,-169.43885533520455,0.08645547181367874,-0.022850994020700455,0.2966249883174896,-0.9507980346679688
04216434-9060-4566-a194-13ca982e27d0,7c474fe1-0c6f-4be3-b831-2fab4af32130,1759226813454440287,-3.131866,-1.739502,0.432968,-0.01123,-0.589355,0.856445,0.5317362727595053,-34.66891278379181,-169.4274997226774,0.08656955510377884,-0.023039570078253746,0.2970866858959198,-0.9506388902664185
04216434-9060-4566-a194-13ca982e27d0,7c474fe1-0c6f-4be3-b831-2fab4af32130,1759226813462419287,-2.946854,-1.86348,0.921249,-0.004395,-0.570312,0.849609,0.521738594702834,-34.6913957091194,-169.42175111801095,0.08663692325353622,-0.023154940456151962,0.29726442694664,-0.9505743980407715
04216434-9060-4566-a194-13ca982e27d0,7c474fe1-0c6f-4be3-b831-2fab4af32130,1759226813470398287,-3.131866,-1.922607,0.558853,-0.018066,-0.568848,0.842773,0.5095729382368026,-34.716257429711526,-169.3975024601342,0.08686273545026779,-0.023338180035352707,0.2974564731121063,-0.9504892230033875
04216434-9060-4566-a194-13ca982e27d0,7c474fe1-0c6f-4be3-b831-2fab4af32130,1759226813486397287,-3.072739,-2.168655,1.047134,-0.008301,-0.59375,0.844727,0.49881536978407454,-34.74333131005642,-169.3416990689541,0.08734598755836487,-0.02359350584447384,0.29766136407852173,-0.9503744840621948
04216434-9060-4566-a194-13ca982e27d0,7c474fe1-0c6f-4be3-b831-2fab4af32130,1759226813494417287,-2.401352,-1.86348,0.921249,-0.010742,-0.585449,0.858398,0.4886205890452786,-34.76467819758625,-169.3408083270598,0.08737393468618393,-0.02369712106883526,0.29783040285110474,-0.9503163695335388
04216434-9060-4566-a194-13ca982e27d0,7c474fe1-0c6f-4be3-b831-2fab4af32130,1759226813502437287,-2.643585,-1.434326,1.047134,-0.005859,-0.581543,0.849121,0.48266979032230084,-34.78513816818711,-169.3133595402679,0.08761134743690491,-0.023833898827433586,0.29798978567123413,-0.9502411484718323
04216434-9060-4566-a194-13ca982e27d0,7c474fe1-0c6f-4be3-b831-2fab4af32130,1759226813510457287,-2.46048,-1.434326,0.986099,-0.002441,-0.597656,0.833008,0.47525006436907546,-34.804593947774855,-169.23996957298837,0.08823377639055252,-0.02410166710615158,0.2981300354003906,-0.9501327872276306
04216434-9060-4566-a194-13ca982e27d0,7c474fe1-0c6f-4be3-b831-2fab4af32130,1759226813521097287,-2.58255,-1.12915,0.802994,-0.004883,-0.586914,0.849121,0.46844730616158314,-34.82859983118749,-169.237392783047,0.08826614916324615,-0.02418377809226513,0.29832324385643005,-0.9500670433044434
04216434-9060-4566-a194-13ca982e27d0,7c474fe1-0c6f-4be3-b831-2fab4af32130,1759226813531737287,-2.399445,-1.251221,0.802994,-0.003418,-0.599609,0.838379,0.4618405284494338,-34.85471386811524,-169.24305669082372,0.08822911977767944,-0.024244461208581924,0.2985357940196991,-0.9500021934509277
04216434-9060-4566-a194-13ca982e27d0,7c474fe1-0c6f-4be3-b831-2fab4af32130,1759226813542377287,-2.643585,-1.251221,0.616074,-0.008789,-0.585449,0.844238,0.4573627171938007,-34.88419429075187,-169.23842371927822,0.08827099204063416,-0.024316977709531784,0.29877570271492004,-0.9499210119247437
04216434-9060-4566-a194-13ca982e27d0,7c474fe1-0c6f-4be3-b831-2fab4af32130,1759226813550387287,-2.584457,-1.802444,1.35231,-0.003906,-0.59082,0.842285,0.4439248146820835,-34.92734759127888,-169.2130553483072,0.08850431442260742,-0.024528712034225464,0.2991175353527069,-0.9497863054275513
04216434-9060-4566-a194-13ca982e27d0,7c474fe1-0c6f-4be3-b831-2fab4af32130,1759226813558400287,-2.521515,-1.983643,1.535416,-0.004883,-0.595215,0.839844,0.4326526076905349,-34.95049335951843,-169.23141433555645,0.08837515860795975,-0.024592529982328415,0.2993045747280121,-0.9497377276420593
04216434-9060-4566-a194-13ca982e27d0,7c474fe1-0c6f-4be3-b831-2fab4af32130,1759226813566413287,-2.521515,-2.166748,1.535416,-0.015137,-0.597168,0.843262,0.4247046744376639,-34.97358547921636,-169.22135863458612,0.0884728655219078,-0.024702943861484528,0.2994876205921173,-0.9496680498123169
04216434-9060-4566-a194-13ca982e27d0,7c474fe1-0c6f-4be3-b831-2fab4af32130,1759226813574426287,-2.399445,-2.105713,1.840591,-0.011719,-0.603027,0.842773,0.41797626564126816,-34.997055566556874,-169.16781072207775,0.08892769366502762,-0.02491731010377407,0.29966527223587036,-0.9495639204978943
