section id,recording id,timestamp [ns],gyro x [deg/s],gyro y [deg/s],gyro z [deg/s],acceleration x [g],acceleration y [g],acceleration z [g],roll [deg],pitch [deg],yaw [deg],quaternion w,quaternion x,quaternion y,quaternion z
089897f7-a439-4954-b9ea-8c99d79603e5,586833ca-95b0-4750-b3b1-19762c7fe6c4,1761218967052686160,-0.337601,-1.626968,1.455307,-0.009766,-0.566895,0.84375,0.15022325547123805,-33.60508914302437,127.34171530691313,0.42493075132369995,-0.12933698296546936,-0.2585291862487793,0.8578277230262756
089897f7-a439-4954-b9ea-8c99d79603e5,586833ca-95b0-4750-b3b1-19762c7fe6c4,1761218967060719160,-0.703812,-1.867294,1.699448,-0.017578,-0.557617,0.856445,0.15061572454471014,-33.61430606307227,127.32497323994752,0.42504674196243286,-0.12941183149814606,-0.2585778534412384,0.8577442765235901
089897f7-a439-4954-b9ea-8c99d79603e5,586833ca-95b0-4750-b3b1-19762c7fe6c4,1761218967068752160,-1.192093,-1.504898,1.878738,-0.011719,-0.566406,0.853027,0.15136714383317157,-33.627627868558434,127.31540815691858,0.4251052439212799,-0.12948837876319885,-0.25866401195526123,0.8576777577400208
089897f7-a439-4954-b9ea-8c99d79603e5,586833ca-95b0-4750-b3b1-19762c7fe6c4,1761218967076785160,-1.253128,-1.504898,2.187729,-0.009277,-0.561523,0.854492,0.15562526705463192,-33.64182129904521,127.31836209217853,0.42507699131965637,-0.12956614792346954,-0.2587578296661377,0.8576517105102539
089897f7-a439-4954-b9ea-8c99d79603e5,586833ca-95b0-4750-b3b1-19762c7fe6c4,1761218967087464160,-1.438141,-1.502991,2.737045,0.001953,-0.575195,0.862305,0.15857479420458992,-33.652568562057446,127.3232121557479,0.42503541707992554,-0.12961706519126892,-0.2588328421115875,0.8576419949531555
089897f7-a439-4954-b9ea-8c99d79603e5,586833ca-95b0-4750-b3b1-19762c7fe6c4,1761218967098143160,-1.192093,-0.585556,2.920151,0.02002,-0.562988,0.871094,0.16196271649285324,-33.654148689567826,127.31348372189161,0.42511412501335144,-0.12967024743556976,-0.2588210999965668,0.8575984835624695
089897f7-a439-4954-b9ea-8c99d79603e5,586833ca-95b0-4750-b3b1-19762c7fe6c4,1761218967108822160,-0.644684,-0.587463,2.614975,-0.004883,-0.561523,0.875977,0.1725526523486513,-33.654043618032134,127.28553197505917,0.42534732818603516,-0.12981222569942474,-0.2587493658065796,0.8574830293655396
089897f7-a439-4954-b9ea-8c99d79603e5,586833ca-95b0-4750-b3b1-19762c7fe6c4,1761218967119421160,-0.278473,0.144958,1.943588,0.018555,-0.575195,0.865234,0.17723666522960987,-33.657938584986795,127.26573533854456,0.4255017042160034,-0.12990640103816986,-0.2587386965751648,0.8573954105377197
089897f7-a439-4954-b9ea-8c99d79603e5,586833ca-95b0-4750-b3b1-19762c7fe6c4,1761218967130020160,-0.581741,0.631332,1.573563,0.011719,-0.565918,0.851074,0.18319410487864402,-33.65979724315554,127.23135527939108,0.4257703125476837,-0.13003548979759216,-0.2586914896965027,0.8572567105293274
089897f7-a439-4954-b9ea-8c99d79603e5,586833ca-95b0-4750-b3b1-19762c7fe6c4,1761218967140619160,-0.154495,0.757217,0.597,0.017578,-0.572754,0.844238,0.18722489854501814,-33.6660727267213,127.17125699513981,0.42622196674346924,-0.1302245855331421,-0.25865522027015686,0.8570144772529602
089897f7-a439-4954-b9ea-8c99d79603e5,586833ca-95b0-4750-b3b1-19762c7fe6c4,1761218967148636160,-0.152588,1.182556,-0.074387,0.005859,-0.572266,0.87207,0.1840434370872272,-33.665887383859626,127.04400983593362,0.4271664023399353,-0.13048726320266724,-0.2585209310054779,0.8565446734428406
089897f7-a439-4954-b9ea-8c99d79603e5,586833ca-95b0-4750-b3b1-19762c7fe6c4,1761218967156654160,-0.337601,0.326157,-0.619888,0.004883,-0.568359,0.858398,0.18133567817844423,-33.66786199849688,126.9863248795345,0.42758920788764954,-0.13060449063777924,-0.2584800720214844,0.8563281893730164
089897f7-a439-4954-b9ea-8c99d79603e5,586833ca-95b0-4750-b3b1-19762c7fe6c4,1761218967164672160,-0.644684,0.694275,-0.562668,-0.004883,-0.566895,0.850098,0.17929155583530737,-33.667186362568586,126.91728122863097,0.42810124158859253,-0.13074243068695068,-0.2584039270877838,0.8560742139816284
089897f7-a439-4954-b9ea-8c99d79603e5,586833ca-95b0-4750-b3b1-19762c7fe6c4,1761218967172690160,-0.337601,0.631332,-1.10817,-0.012207,-0.583984,0.864258,0.18158083918032256,-33.67035103337926,126.8332335165281,0.42873063683509827,-0.1309608370065689,-0.2583230435848236,0.8557502031326294
089897f7-a439-4954-b9ea-8c99d79603e5,586833ca-95b0-4750-b3b1-19762c7fe6c4,1761218967183347160,-0.09346,-0.040054,-1.596451,-0.004395,-0.57666,0.864746,0.17566553896750023,-33.669355264959776,126.74109577210513,0.4294063448905945,-0.13112060725688934,-0.25823238492012024,0.8554142713546753
089897f7-a439-4954-b9ea-8c99d79603e5,586833ca-95b0-4750-b3b1-19762c7fe6c4,1761218967194004160,0.150681,0.326157,-1.962662,0.004395,-0.575684,0.865723,0.16462380109255959,-33.66752772273194,126.68166031927831,0.42982715368270874,-0.1311652958393097,-0.25819212198257446,0.855208158493042
089897f7-a439-4954-b9ea-8c99d79603e5,586833ca-95b0-4750-b3b1-19762c7fe6c4,1761218967204661160,0.640869,0.694275,-1.962662,-0.010254,-0.561523,0.869629,0.15884708456152863,-33.65756428137951,126.58732557623883,0.43052923679351807,-0.13129733502864838,-0.2580313980579376,0.8548831939697266
089897f7-a439-4954-b9ea-8c99d79603e5,586833ca-95b0-4750-b3b1-19762c7fe6c4,1761218967215420160,0.881195,0.694275,-2.084732,-0.007324,-0.577148,0.871582,0.15948916730904775,-33.64791640882509,126.42259043915861,0.43177008628845215,-0.1316366344690323,-0.25776800513267517,0.8542844653129578
089897f7-a439-4954-b9ea-8c99d79603e5,586833ca-95b0-4750-b3b1-19762c7fe6c4,1761218967226181160,0.944138,0.757217,-2.027512,-0.004395,-0.55957,0.854004,0.15535668220154347,-33.639431426024984,126.25428088134181,0.43302467465400696,-0.13195228576660156,-0.2575267553329468,0.8536733388900757
089897f7-a439-4954-b9ea-8c99d79603e5,586833ca-95b0-4750-b3b1-19762c7fe6c4,1761218967236942160,0.944138,0.757217,-2.084732,-0.01416,-0.567383,0.866211,0.15449272251039084,-33.62801711518393,126.07701223249154,0.434355765581131,-0.13230088353157043,-0.2572405934333801,0.853029191493988
089897f7-a439-4954-b9ea-8c99d79603e5,586833ca-95b0-4750-b3b1-19762c7fe6c4,1761218967244874160,0.576019,0.389099,-1.901627,-0.007324,-0.567871,0.861328,0.15472799798538975,-33.612084046728484,125.72695327528452,0.4369783103466034,-0.13302718102931976,-0.2567158639431,0.851733922958374
089897f7-a439-4954-b9ea-8c99d79603e5,586833ca-95b0-4750-b3b1-19762c7fe6c4,1761218967252807160,0.638962,0.509262,-1.596451,-0.01416,-0.564941,0.858398,0.15375758311758206,-33.60362063771893,125.71320112685413,0.4370880126953125,-0.13301855325698853,-0.2566406726837158,0.8517016172409058
089897f7-a439-4954-b9ea-8c99d79603e5,586833ca-95b0-4750-b3b1-19762c7fe6c4,1761218967260740160,0.640869,0.389099,-1.47438,-0.01123,-0.582031,0.860352,0.15180994492797018,-33.59997872895557,125.61767941354526,0.4377976357936859,-0.13320408761501312,-0.25651007890701294,0.8513473868370056
089897f7-a439-4954-b9ea-8c99d79603e5,586833ca-95b0-4750-b3b1-19762c7fe6c4,1761218967268673160,0.699997,-0.040054,-0.986099,-0.006348,-0.578613,0.84668,0.15368177183915313,-33.60223543632901,125.45510838884823,0.43900659680366516,-0.13359038531780243,-0.2563304305076599,0.8507182002067566
089897f7-a439-4954-b9ea-8c99d79603e5,586833ca-95b0-4750-b3b1-19762c7fe6c4,1761218967279326160,0.69809,0.144958,-0.680923,-0.009766,-0.552246,0.850586,0.15731077090637752,-33.60158439312564,125.29572220168528,0.44019830226898193,-0.1339712142944336,-0.2561255991458893,0.8501039743423462
089897f7-a439-4954-b9ea-8c99d79603e5,586833ca-95b0-4750-b3b1-19762c7fe6c4,1761218967289979160,0.69809,0.144958,-0.562668,-0.000977,-0.562988,0.858398,0.15937625116811296,-33.60047962506232,125.13810739522091,0.4413730502128601,-0.13433444499969482,-0.25592494010925293,0.8494977355003357
089897f7-a439-4954-b9ea-8c99d79603e5,586833ca-95b0-4750-b3b1-19762c7fe6c4,1761218967300632160,0.823975,-0.099182,-0.562668,-0.011719,-0.572754,0.863281,0.1651074974679025,-33.59912214377418,125.14127765838619,0.4413639008998871,-0.13436461985111237,-0.25589650869369507,0.8495063185691833
089897f7-a439-4954-b9ea-8c99d79603e5,586833ca-95b0-4750-b3b1-19762c7fe6c4,1761218967311315160,1.003265,0.144958,0.108719,-0.01709,-0.5625,0.862793,0.1734623188825897,-33.59770249444066,125.14590402486539,0.44134989380836487,-0.1344107687473297,-0.25585922598838806,0.8495175242424011
089897f7-a439-4954-b9ea-8c99d79603e5,586833ca-95b0-4750-b3b1-19762c7fe6c4,1761218967322000160,0.69809,-0.465393,-0.009537,-0.024414,-0.570312,0.840332,0.1810166838194623,-33.60230215882122,125.15008281695616,0.4413304924964905,-0.13447512686252594,-0.25586915016174316,0.8495144248008728
089897f7-a439-4954-b9ea-8c99d79603e5,586833ca-95b0-4750-b3b1-19762c7fe6c4,1761218967332685160,0.881195,-0.099182,0.53978,-0.006836,-0.57373,0.847168,0.1881090794314083,-33.604526809793,125.01857697890094,0.4423183798789978,-0.1348298043012619,-0.25570377707481384,0.8489940166473389
089897f7-a439-4954-b9ea-8c99d79603e5,586833ca-95b0-4750-b3b1-19762c7fe6c4,1761218967343368160,0.823975,-0.282288,0.967026,-0.007324,-0.575684,0.839844,0.19383582427393778,-33.60826483749785,124.9609823519447,0.44275349378585815,-0.13501513004302979,-0.25564154982566833,0.8487564921379089
089897f7-a439-4954-b9ea-8c99d79603e5,586833ca-95b0-4750-b3b1-19762c7fe6c4,1761218967354052160,0.822067,-0.650406,0.902176,-0.003906,-0.560059,0.850586,0.19402500868693429,-33.599970979481036,124.97049400336503,0.4426930248737335,-0.13496333360671997,-0.255590558052063,0.8488116264343262
089897f7-a439-4954-b9ea-8c99d79603e5,586833ca-95b0-4750-b3b1-19762c7fe6c4,1761218967364736160,0.69809,-0.465393,1.085281,-0.000977,-0.579102,0.861816,0.19417274651683564,-33.60450796600328,124.97057159521412,0.4426875412464142,-0.13498173654079437,-0.2556236982345581,0.8488016128540039
089897f7-a439-4954-b9ea-8c99d79603e5,586833ca-95b0-4750-b3b1-19762c7fe6c4,1761218967375378160,0.881195,-0.099182,1.085281,-0.001953,-0.57666,0.853516,0.1948247055738716,-33.6100331773582,124.97093505921994,0.4426799416542053,-0.1350070685148239,-0.25566256046295166,0.8487898111343384
089897f7-a439-4954-b9ea-8c99d79603e5,586833ca-95b0-4750-b3b1-19762c7fe6c4,1761218967386023160,0.455856,-0.097275,1.455307,-0.015625,-0.576172,0.849121,0.2012407780279557,-33.61063295273765,124.97870953084846,0.44263598322868347,-0.1350395679473877,-0.2556513845920563,0.8488109111785889
089897f7-a439-4954-b9ea-8c99d79603e5,586833ca-95b0-4750-b3b1-19762c7fe6c4,1761218967396668160,0.392914,0.511169,1.516342,-0.009766,-0.574219,0.854004,0.21258575363791446,-33.61070112340244,124.99530725953201,0.4425382614135742,-0.13508683443069458,-0.2556276321411133,0.8488615155220032
089897f7-a439-4954-b9ea-8c99d79603e5,586833ca-95b0-4750-b3b1-19762c7fe6c4,1761218967403080160,0.577927,0.326157,1.573563,-0.004883,-0.564453,0.848633,0.24330933692028503,-33.60330855710121,124.61685076959395,0.44541630148887634,-0.13612888753414154,-0.25500598549842834,0.8473753929138184
089897f7-a439-4954-b9ea-8c99d79603e5,586833ca-95b0-4750-b3b1-19762c7fe6c4,1761218967409492160,1.064301,0.511169,1.638412,-0.016113,-0.581543,0.847656,0.25971060634116844,-33.59966844168501,124.39383659805544,0.4471052587032318,-0.13673189282417297,-0.25464966893196106,0.8464955687522888
089897f7-a439-4954-b9ea-8c99d79603e5,586833ca-95b0-4750-b3b1-19762c7fe6c4,1761218967415904160,1.310349,0.631332,1.455307,-0.010742,-0.575195,0.85498,0.27734423643896944,-33.589887206589054,124.21844318865253,0.44845089316368103,-0.13721348345279694,-0.2542988359928131,0.8458110094070435
089897f7-a439-4954-b9ea-8c99d79603e5,586833ca-95b0-4750-b3b1-19762c7fe6c4,1761218967422316160,1.615524,0.757217,1.638412,0.005859,-0.572266,0.848144,0.29346667443044105,-33.58077208656936,124.11082535712156,0.4492913782596588,-0.13753554224967957,-0.25403934717178345,0.8453905582427979
089897f7-a439-4954-b9ea-8c99d79603e5,586833ca-95b0-4750-b3b1-19762c7fe6c4,1761218967428728160,1.312256,0.694275,1.638412,0.00293,-0.58252,0.85791,0.3060428685155559,-33.57126388504199,123.8989484565708,0.4508926570415497,-0.13806042075157166,-0.2536650002002716,0.8445644378662109
089897f7-a439-4954-b9ea-8c99d79603e5,586833ca-95b0-4750-b3b1-19762c7fe6c4,1761218967440700160,1.491547,0.389099,1.573563,-0.012695,-0.57666,0.85498,0.3226250155969844,-33.55818536359573,123.79736284679868,0.4516931176185608,-0.13835600018501282,-0.2533807158470154,0.8441736102104187
089897f7-a439-4954-b9ea-8c99d79603e5,586833ca-95b0-4750-b3b1-19762c7fe6c4,1761218967452672160,1.918793,0.87738,1.699448,-0.018066,-0.567383,0.85791,0.3434346634078949,-33.54173294015303,123.81831814495887,0.45160388946533203,-0.13839834928512573,-0.2532026767730713,0.8442678451538086
089897f7-a439-4954-b9ea-8c99d79603e5,586833ca-95b0-4750-b3b1-19762c7fe6c4,1761218967464644160,1.979828,0.572205,1.699448,-0.007812,-0.581543,0.855957,0.3600974735130227,-33.5303642960926,123.8375720420077,0.45151206851005554,-0.13843396306037903,-0.253076434135437,0.8443489074707031
089897f7-a439-4954-b9ea-8c99d79603e5,586833ca-95b0-4750-b3b1-19762c7fe6c4,1761218967476616160,1.857758,0.694275,1.760483,-0.003906,-0.56543,0.862793,0.3749177507862177,-33.51139912366309,123.74366632525457,0.4522585868835449,-0.13867586851119995,-0.25276458263397217,0.8440030813217163
089897f7-a439-4954-b9ea-8c99d79603e5,586833ca-95b0-4750-b3b1-19762c7fe6c4,1761218967487300160,1.918793,0.87738,1.390457,-0.005371,-0.571777,0.865234,0.39265252643931503,-33.49611394459001,123.54223411373694,0.45379838347435,-0.1391901820898056,-0.25233760476112366,0.8432192802429199
089897f7-a439-4954-b9ea-8c99d79603e5,586833ca-95b0-4750-b3b1-19762c7fe6c4,1761218967497987160,2.223969,0.572205,1.573563,-0.013672,-0.569336,0.859375,0.4095698078396484,-33.48018379155997,123.36127794973252,0.4551851749420166,-0.13964983820915222,-0.2519330382347107,0.8425164818763733
089897f7-a439-4954-b9ea-8c99d79603e5,586833ca-95b0-4750-b3b1-19762c7fe6c4,1761218967508674160,1.979828,0.450134,1.455307,-0.010742,-0.56543,0.852539,0.42550448699430987,-33.461872422109295,123.21096200061848,0.456346333026886,-0.14002463221549988,-0.25155147910118103,0.8419399857521057
089897f7-a439-4954-b9ea-8c99d79603e5,586833ca-95b0-4750-b3b1-19762c7fe6c4,1761218967516700160,2.468109,0.389099,1.150131,-0.002441,-0.570801,0.853516,0.44632794957460303,-33.42150281153217,122.81588425620498,0.45933935046195984,-0.140882670879364,-0.2506873309612274,0.8404256105422974
089897f7-a439-4954-b9ea-8c99d79603e5,586833ca-95b0-4750-b3b1-19762c7fe6c4,1761218967524724160,2.71225,0.87738,0.902176,0.002441,-0.561035,0.865723,0.45434250521161573,-33.39501027963889,122.64443789368995,0.4606448709964752,-0.14121027290821075,-0.2502496540546417,0.8397862911224365
089897f7-a439-4954-b9ea-8c99d79603e5,586833ca-95b0-4750-b3b1-19762c7fe6c4,1761218967532748160,2.714157,-0.040054,0.967026,-0.008789,-0.555176,0.867187,0.46052489407613206,-33.36651715449344,122.46338875966407,0.46201813220977783,-0.14153636991977692,-0.24979239702224731,0.8391128778457642
089897f7-a439-4954-b9ea-8c99d79603e5,586833ca-95b0-4750-b3b1-19762c7fe6c4,1761218967540772160,2.714157,0.143051,0.844955,0.000977,-0.566406,0.867187,0.46724069505635707,-33.34196306879463,122.27373672604432,0.4634498357772827,-0.14189986884593964,-0.24935077130794525,0.838392972946167
089897f7-a439-4954-b9ea-8c99d79603e5,586833ca-95b0-4750-b3b1-19762c7fe6c4,1761218967551430160,2.71225,0.083923,0.78392,-0.006348,-0.570312,0.854492,0.4731518480607923,-33.31798919378651,122.07107537186879,0.4649730324745178,-0.1422870010137558,-0.24889996647834778,0.8376175761222839
089897f7-a439-4954-b9ea-8c99d79603e5,586833ca-95b0-4750-b3b1-19762c7fe6c4,1761218967562088160,2.346039,0.083923,0.71907,-0.021973,-0.55957,0.848633,0.4826017743582331,-33.29704576846766,121.86597150781016,0.4665168225765228,-0.1427164077758789,-0.2484532743692398,0.8368183374404907
089897f7-a439-4954-b9ea-8c99d79603e5,586833ca-95b0-4750-b3b1-19762c7fe6c4,1761218967572746160,2.225876,0.265121,0.478745,-0.012695,-0.569824,0.856934,0.4893491764558154,-33.278695724251826,121.65030617866873,0.4681273102760315,-0.14315834641456604,-0.24802261590957642,0.8359708189964294
089897f7-a439-4954-b9ea-8c99d79603e5,586833ca-95b0-4750-b3b1-19762c7fe6c4,1761218967583386160,2.408981,-0.4673,0.173569,-0.016113,-0.558594,0.854004,0.4924898504707386,-33.25593093334607,121.46271798071695,0.46952906250953674,-0.14349421858787537,-0.24760890007019043,0.8352494239807129
089897f7-a439-4954-b9ea-8c99d79603e5,586833ca-95b0-4750-b3b1-19762c7fe6c4,1761218967594026160,2.162933,-0.099182,0.108719,-0.014648,-0.560547,0.850098,0.4898421673238889,-33.235465818970134,121.29373413177854,0.4707789421081543,-0.1437562108039856,-0.24725863337516785,0.8346043825149536
089897f7-a439-4954-b9ea-8c99d79603e5,586833ca-95b0-4750-b3b1-19762c7fe6c4,1761218967604666160,2.346039,-0.404358,0.295639,0.000977,-0.559082,0.859863,0.4897666154799928,-33.21369970555534,121.14915080811716,0.4718574583530426,-0.1439783126115799,-0.246918722987175,0.8340574502944946
089897f7-a439-4954-b9ea-8c99d79603e5,586833ca-95b0-4750-b3b1-19762c7fe6c4,1761218967615333160,1.800537,-0.770569,0.413895,-0.004395,-0.544434,0.87207,0.4886306576183953,-33.16916697573503,120.73689510213543,0.4749060571193695,-0.14467370510101318,-0.24607989192008972,0.8324532508850098
089897f7-a439-4954-b9ea-8c99d79603e5,586833ca-95b0-4750-b3b1-19762c7fe6c4,1761218967626000160,1.79863,-0.711441,0.53978,-0.007812,-0.543945,0.858398,0.4845860844083103,-33.148477210259585,120.61627191345634,0.47579827904701233,-0.1448177844285965,-0.24579383432865143,0.8320030570030212
089897f7-a439-4954-b9ea-8c99d79603e5,586833ca-95b0-4750-b3b1-19762c7fe6c4,1761218967636667160,2.288818,-0.099182,0.413895,-0.013672,-0.550781,0.852539,0.48854092157147344,-33.12812409426741,120.46398705792808,0.4769365191459656,-0.14508864283561707,-0.24543681740760803,0.8314093947410583
089897f7-a439-4954-b9ea-8c99d79603e5,586833ca-95b0-4750-b3b1-19762c7fe6c4,1761218967647345160,1.491547,0.205994,0.53978,-0.012695,-0.551758,0.853027,0.49285521089318957,-33.10898148863154,120.25700737839395,0.4784698188304901,-0.14548343420028687,-0.2450173944234848,0.8305826783180237
089897f7-a439-4954-b9ea-8c99d79603e5,586833ca-95b0-4750-b3b1-19762c7fe6c4,1761218967658024160,1.066208,-0.040054,0.173569,-0.008301,-0.548828,0.862305,0.4980981830138884,-33.09807505394641,120.06258099422527,0.4799027740955353,-0.1458914428949356,-0.24466915428638458,0.8297866582870483
089897f7-a439-4954-b9ea-8c99d79603e5,586833ca-95b0-4750-b3b1-19762c7fe6c4,1761218967668703160,1.127243,0.143051,0.478745,-0.016113,-0.562988,0.865723,0.5016535015245084,-33.09287268201673,119.86088634530482,0.48137643933296204,-0.14632581174373627,-0.2443593591451645,0.8289474844932556
089897f7-a439-4954-b9ea-8c99d79603e5,586833ca-95b0-4750-b3b1-19762c7fe6c4,1761218967676823160,0.883102,-0.040054,0.356674,-0.013184,-0.563965,0.853516,0.5001298592246596,-33.095641483034136,119.43191823629361,0.48446956276893616,-0.14724019169807434,-0.24383634328842163,0.8271356225013733
089897f7-a439-4954-b9ea-8c99d79603e5,586833ca-95b0-4750-b3b1-19762c7fe6c4,1761218967684943160,0.577927,-0.22316,0.597,0.001465,-0.567871,0.856934,0.5016622780320383,-33.09643866681045,119.26726796701236,0.48565980792045593,-0.1476048082113266,-0.2436237931251526,0.8264349699020386
089897f7-a439-4954-b9ea-8c99d79603e5,586833ca-95b0-4750-b3b1-19762c7fe6c4,1761218967693063160,0.514984,-0.099182,0.66185,-0.011719,-0.574707,0.870605,0.5033001160735,-33.09837307514881,119.16672373578248,0.48638585209846497,-0.14783848822116852,-0.2435012012720108,0.8260022401809692
089897f7-a439-4954-b9ea-8c99d79603e5,586833ca-95b0-4750-b3b1-19762c7fe6c4,1761218967709091160,0.514984,0.022888,0.413895,-0.016113,-0.568359,0.858887,0.5052990497144095,-33.0960578021534,119.02751235879724,0.4873960614204407,-0.14813880622386932,-0.24329622089862823,0.8254131078720093
089897f7-a439-4954-b9ea-8c99d79603e5,586833ca-95b0-4750-b3b1-19762c7fe6c4,1761218967716999160,0.761032,0.085831,0.356674,-0.002441,-0.557617,0.861816,0.5031114657429305,-33.09527655677222,118.82661213767769,0.48883873224258423,-0.14854605495929718,-0.2430398315191269,0.8245618939399719
089897f7-a439-4954-b9ea-8c99d79603e5,586833ca-95b0-4750-b3b1-19762c7fe6c4,1761218967724907160,0.944138,0.204086,0.53978,-0.005859,-0.572266,0.862305,0.5028432682323811,-33.09475555303887,118.65325996882335,0.490085631608963,-0.14890940487384796,-0.24281223118305206,0.8238229155540466
089897f7-a439-4954-b9ea-8c99d79603e5,586833ca-95b0-4750-b3b1-19762c7fe6c4,1761218967732815160,1.127243,0.143051,0.295639,-0.008301,-0.538574,0.873535,0.5044536073614262,-33.091038075884214,118.46279036031687,0.4914622902870178,-0.1493084728717804,-0.2425307333469391,0.8230131268501282
089897f7-a439-4954-b9ea-8c99d79603e5,586833ca-95b0-4750-b3b1-19762c7fe6c4,1761218967740789160,1.371384,-0.040054,0.478745,-0.018066,-0.553223,0.85498,0.5146880395940067,-33.086953579681186,118.24713733391837,0.49303698539733887,-0.14982056617736816,-0.24217593669891357,0.8220821619033813
089897f7-a439-4954-b9ea-8c99d79603e5,586833ca-95b0-4750-b3b1-19762c7fe6c4,1761218967748763160,1.554489,0.143051,0.53978,-0.005859,-0.56543,0.855469,0.5171684898806065,-33.075238961115154,118.04663987219514,0.4944944381713867,-0.15021151304244995,-0.2418186366558075,0.8212401866912842
089897f7-a439-4954-b9ea-8c99d79603e5,586833ca-95b0-4750-b3b1-19762c7fe6c4,1761218967756737160,1.369476,0.389099,0.108719,-0.008301,-0.565918,0.858398,0.5224182133035791,-33.064615101311716,117.86939260910404,0.49578845500946045,-0.15057720243930817,-0.24148710072040558,0.8204902410507202
089897f7-a439-4954-b9ea-8c99d79603e5,586833ca-95b0-4750-b3b1-19762c7fe6c4,1761218967764711160,1.491547,0.450134,-0.074387,-0.016602,-0.57373,0.855469,0.5224512491920538,-33.0577702798265,117.71388551888803,0.49691009521484375,-0.15087547898292542,-0.24123334884643555,0.8198312520980835
089897f7-a439-4954-b9ea-8c99d79603e5,586833ca-95b0-4750-b3b1-19762c7fe6c4,1761218967775361160,1.249313,0.326157,-0.314713,-0.01416,-0.549805,0.865234,0.5278304416395745,-33.050545998893604,117.53422312677974,0.4982152283191681,-0.15126068890094757,-0.24092139303684235,0.8190595507621765
089897f7-a439-4954-b9ea-8c99d79603e5,586833ca-95b0-4750-b3b1-19762c7fe6c4,1761218967786011160,1.491547,0.511169,-0.375748,-0.007324,-0.5625,0.869141,0.5244685573039889,-33.045138362711036,117.30487642137963,0.499853253364563,-0.15169507265090942,-0.24059416353702545,0.8180768489837646
089897f7-a439-4954-b9ea-8c99d79603e5,586833ca-95b0-4750-b3b1-19762c7fe6c4,1761218967796661160,1.9207,0.204086,-0.680923,-0.004883,-0.558594,0.875977,0.5291827904271963,-33.02823667722412,117.18316102872262,0.5007531046867371,-0.151910662651062,-0.2402915209531784,0.8175752758979797
089897f7-a439-4954-b9ea-8c99d79603e5,586833ca-95b0-4750-b3b1-19762c7fe6c4,1761218967807371160,1.737595,0.085831,-1.10817,-0.01123,-0.565918,0.863769,0.5269808325498495,-33.008770247122875,117.0285665831282,0.5018755793571472,-0.15213410556316376,-0.23995698988437653,0.8169435262680054
089897f7-a439-4954-b9ea-8c99d79603e5,586833ca-95b0-4750-b3b1-19762c7fe6c4,1761218967818081160,1.491547,0.389099,-0.986099,-0.007812,-0.559082,0.865234,0.5234349857408472,-32.993505144083336,116.80691887890283,0.5034667253494263,-0.15250594913959503,-0.23956897854804993,0.816008448600769
089897f7-a439-4954-b9ea-8c99d79603e5,586833ca-95b0-4750-b3b1-19762c7fe6c4,1761218967828791160,1.857758,0.511169,-1.234055,0.001465,-0.54834,0.864746,0.516173190241857,-32.97532582776507,116.58900448568406,0.5050255060195923,-0.1528298258781433,-0.2391810119152069,0.8150979280471802
089897f7-a439-4954-b9ea-8c99d79603e5,586833ca-95b0-4750-b3b1-19762c7fe6c4,1761218967836781160,1.9207,0.204086,-1.657486,-0.011719,-0.557129,0.857422,0.5014378497637232,-32.941208214680536,116.1317073569603,0.5082871913909912,-0.15352784097194672,-0.23839208483695984,0.8131681680679321
089897f7-a439-4954-b9ea-8c99d79603e5,586833ca-95b0-4750-b3b1-19762c7fe6c4,1761218967844769160,1.979828,0.022888,-1.779556,-0.014648,-0.548828,0.865234,0.4939972003593148,-32.92015199178522,115.91026682219479,0.5098691582679749,-0.15384218096733093,-0.23797857761383057,0.8122389912605286
089897f7-a439-4954-b9ea-8c99d79603e5,586833ca-95b0-4750-b3b1-19762c7fe6c4,1761218967852757160,1.676559,-0.22316,-1.901627,0.008789,-0.536133,0.861328,0.4750621923502302,-32.90337805483667,115.69766170821845,0.5113575458526611,-0.15407483279705048,-0.23765829205513,0.8113524913787842
089897f7-a439-4954-b9ea-8c99d79603e5,586833ca-95b0-4750-b3b1-19762c7fe6c4,1761218967860745160,1.676559,-0.22316,-1.840591,-0.010742,-0.537598,0.850098,0.4652638037735667,-32.882387722368,115.54665295790191,0.5124330520629883,-0.15422506630420685,-0.23735013604164124,0.8107353448867798
089897f7-a439-4954-b9ea-8c99d79603e5,586833ca-95b0-4750-b3b1-19762c7fe6c4,1761218967871405160,1.857758,-0.404358,-2.027512,-0.015137,-0.560547,0.860352,0.4538198956773064,-32.863676266838084,115.36560338617646,0.5137138366699219,-0.1544354259967804,-0.23702502250671387,0.8099794983863831
089897f7-a439-4954-b9ea-8c99d79603e5,586833ca-95b0-4750-b3b1-19762c7fe6c4,1761218967882065160,1.857758,-0.099182,-1.657486,-0.016602,-0.537109,0.85791,0.44905911624862593,-32.84488519708824,115.13693912954022,0.5153436064720154,-0.1547902673482895,-0.23660492897033691,0.8089987635612488
089897f7-a439-4954-b9ea-8c99d79603e5,586833ca-95b0-4750-b3b1-19762c7fe6c4,1761218967892725160,1.186371,0.205994,-1.840591,-0.013184,-0.546387,0.859375,0.44460479193003205,-32.833014802446534,114.9621193010794,0.5165834426879883,-0.1550663262605667,-0.23630474507808685,0.8082424998283386
089897f7-a439-4954-b9ea-8c99d79603e5,586833ca-95b0-4750-b3b1-19762c7fe6c4,1761218967900721160,0.881195,0.511169,-1.779556,-0.014648,-0.560059,0.860352,0.44379184131821836,-32.82406067208518,114.77080774512852,0.5179420709609985,-0.15541456639766693,-0.23598602414131165,0.807398796081543
089897f7-a439-4954-b9ea-8c99d79603e5,586833ca-95b0-4750-b3b1-19762c7fe6c4,1761218967908719160,0.514984,0.87738,-1.840591,-0.007324,-0.563477,0.856445,0.4392141260162908,-32.81840899631794,114.54318422656297,0.5195428133010864,-0.15582525730133057,-0.23565776646137238,0.8063864707946777
089897f7-a439-4954-b9ea-8c99d79603e5,586833ca-95b0-4750-b3b1-19762c7fe6c4,1761218967916717160,0.455856,0.814438,-1.722336,-0.015137,-0.549316,0.861816,0.4447065680054614,-32.81219799834991,114.32637690604102,0.5210869908332825,-0.15628132224082947,-0.23529383540153503,0.8054074645042419
089897f7-a439-4954-b9ea-8c99d79603e5,586833ca-95b0-4750-b3b1-19762c7fe6c4,1761218967924715160,-0.032425,0.879288,-1.596451,-0.015137,-0.552734,0.863281,0.44663275226539717,-32.80929935705336,114.11671096473796,0.5225675106048584,-0.15671192109584808,-0.2349783331155777,0.8044561147689819
089897f7-a439-4954-b9ea-8c99d79603e5,586833ca-95b0-4750-b3b1-19762c7fe6c4,1761218967935368160,0.211716,0.448227,-1.291275,-0.020996,-0.557617,0.859863,0.4538858037867129,-32.810178316048976,113.94981832658287,0.5237522721290588,-0.1571088433265686,-0.23472286760807037,0.8036824464797974
089897f7-a439-4954-b9ea-8c99d79603e5,586833ca-95b0-4750-b3b1-19762c7fe6c4,1761218967946021160,0.026703,0.328064,-1.169205,-0.015137,-0.557129,0.85791,0.45812277389927625,-32.808273630377585,113.77788029546329,0.5249687433242798,-0.157481849193573,-0.23445409536361694,0.8028938174247742
089897f7-a439-4954-b9ea-8c99d79603e5,586833ca-95b0-4750-b3b1-19762c7fe6c4,1761218967956674160,-0.21553,0.448227,-0.925064,-0.014648,-0.537109,0.85498,0.4613884226174802,-32.80789778941546,113.58647412352737,0.5263162851333618,-0.15789438784122467,-0.23417308926582336,0.8020120859146118
089897f7-a439-4954-b9ea-8c99d79603e5,586833ca-95b0-4750-b3b1-19762c7fe6c4,1761218967964687160,-0.21553,0.448227,-0.497818,-0.022949,-0.543457,0.855469,0.4741389442222686,-32.80538348114233,113.3892980145591,0.5277248620986938,-0.15837468206882477,-0.2338247299194336,0.8010929226875305
089897f7-a439-4954-b9ea-8c99d79603e5,586833ca-95b0-4750-b3b1-19762c7fe6c4,1761218967972701160,-0.766754,0.572205,-0.436783,-0.033203,-0.562012,0.853516,0.48308036122269593,-32.80977902649324,113.22446954952981,0.528889000415802,-0.15879350900650024,-0.2335861623287201,0.8003115057945251
089897f7-a439-4954-b9ea-8c99d79603e5,586833ca-95b0-4750-b3b1-19762c7fe6c4,1761218967980715160,-1.07193,0.694275,-0.257492,0.003906,-0.546387,0.859375,0.48200359270086574,-32.80872144141875,113.08145001971245,0.5298866629600525,-0.15907254815101624,-0.2333853840827942,0.7996544241905212
089897f7-a439-4954-b9ea-8c99d79603e5,586833ca-95b0-4750-b3b1-19762c7fe6c4,1761218967988729160,-0.888824,0.87738,-0.074387,-0.010742,-0.557129,0.853516,0.48407840592598345,-32.81294731608052,112.98171241313825,0.5305810570716858,-0.15930958092212677,-0.23326675593852997,0.7991812825202942
089897f7-a439-4954-b9ea-8c99d79603e5,586833ca-95b0-4750-b3b1-19762c7fe6c4,1761218967999404160,-1.008987,1.119614,0.173569,-0.013184,-0.550293,0.855469,0.4954823452219263,-32.82158808324287,112.815477880527,0.5317515134811401,-0.15976721048355103,-0.23304279148578644,0.7983769178390503
089897f7-a439-4954-b9ea-8c99d79603e5,586833ca-95b0-4750-b3b1-19762c7fe6c4,1761218968010079160,-1.375198,0.997543,0.051498,-0.021484,-0.553223,0.861328,0.5116716821435809,-32.83523774098631,112.64250543664564,0.532970666885376,-0.16029469668865204,-0.23282122611999512,0.7975224852561951
089897f7-a439-4954-b9ea-8c99d79603e5,586833ca-95b0-4750-b3b1-19762c7fe6c4,1761218968020754160,-1.375198,0.997543,0.230789,-0.020508,-0.568359,0.861328,0.5244589755615914,-32.849138135732076,112.46912190593665,0.5341840982437134,-0.1608002483844757,-0.2326156347990036,0.7966683506965637
089897f7-a439-4954-b9ea-8c99d79603e5,586833ca-95b0-4750-b3b1-19762c7fe6c4,1761218968028763160,-1.377106,0.694275,0.478745,-0.020996,-0.571777,0.861328,0.5365205463582627,-32.86353612495403,112.31841287006756,0.5352365374565125,-0.1612567901611328,-0.2324478030204773,0.795918345451355
089897f7-a439-4954-b9ea-8c99d79603e5,586833ca-95b0-4750-b3b1-19762c7fe6c4,1761218968036772160,-1.497269,0.997543,0.478745,-0.012207,-0.574219,0.871094,0.5526520341436547,-32.879113067767584,112.16012227939306,0.5363472104072571,-0.1617622673511505,-0.23225761950016022,0.7951232194900513
089897f7-a439-4954-b9ea-8c99d79603e5,586833ca-95b0-4750-b3b1-19762c7fe6c4,1761218968044781160,-1.132965,0.999451,0.902176,-0.013672,-0.562988,0.864258,0.5680064912440579,-32.88998525001436,111.98687253783568,0.5375651717185974,-0.1622704416513443,-0.23201626539230347,0.7942671775817871
089897f7-a439-4954-b9ea-8c99d79603e5,586833ca-95b0-4750-b3b1-19762c7fe6c4,1761218968060769160,-0.886917,0.631332,0.66185,-0.003906,-0.565918,0.875,0.574448881467736,-32.895385660627056,111.86428245300175,0.5384203195571899,-0.1625884473323822,-0.23184974491596222,0.7936713099479675
089897f7-a439-4954-b9ea-8c99d79603e5,586833ca-95b0-4750-b3b1-19762c7fe6c4,1761218968068747160,-0.152588,0.572205,0.356674,-0.02002,-0.577148,0.871094,0.5812753521675041,-32.899581852175466,111.82196784990579,0.53872150182724,-0.16274096071720123,-0.23178671300411224,0.7934540510177612
089897f7-a439-4954-b9ea-8c99d79603e5,586833ca-95b0-4750-b3b1-19762c7fe6c4,1761218968076725160,-0.032425,0.391006,0.66185,-0.024902,-0.569336,0.866211,0.5862721124552621,-32.89979519360468,111.65745112866834,0.5398699045181274,-0.16310913860797882,-0.23153077065944672,0.7926722168922424
089897f7-a439-4954-b9ea-8c99d79603e5,586833ca-95b0-4750-b3b1-19762c7fe6c4,1761218968084703160,0.089645,0.631332,0.478745,-0.020996,-0.559082,0.867676,0.5956389845300943,-32.899396064511485,111.49612347350798,0.5410047769546509,-0.16349779069423676,-0.23125392198562622,0.7918988466262817
089897f7-a439-4954-b9ea-8c99d79603e5,586833ca-95b0-4750-b3b1-19762c7fe6c4,1761218968095368160,0.455856,0.265121,0.597,-0.01709,-0.573242,0.879883,0.6034166633666989,-32.90132375368595,111.35731508765902,0.5419766902923584,-0.16384056210517883,-0.23103225231170654,0.7912278771400452
089897f7-a439-4954-b9ea-8c99d79603e5,586833ca-95b0-4750-b3b1-19762c7fe6c4,1761218968106033160,0.69809,0.328064,0.66185,-0.022949,-0.561523,0.866699,0.608515126222282,-32.90171799786668,111.1950028002014,0.5431066155433655,-0.1642046868801117,-0.2307785153388977,0.7904512286186218
089897f7-a439-4954-b9ea-8c99d79603e5,586833ca-95b0-4750-b3b1-19762c7fe6c4,1761218968116698160,0.69809,0.144958,0.597,-0.023926,-0.571289,0.873535,0.617218431560452,-32.90366034030761,111.0354612717192,0.5442214608192444,-0.16459497809410095,-0.23052175343036652,0.7896778583526611
089897f7-a439-4954-b9ea-8c99d79603e5,586833ca-95b0-4750-b3b1-19762c7fe6c4,1761218968127361160,0.883102,-0.040054,0.66185,-0.032715,-0.562012,0.860352,0.6319066901575967,-32.90560451041449,110.73687977816968,0.5463040471076965,-0.16530534625053406,-0.23003548383712769,0.7882319092750549
089897f7-a439-4954-b9ea-8c99d79603e5,586833ca-95b0-4750-b3b1-19762c7fe6c4,1761218968138025160,0.944138,-0.097275,0.78392,-0.025391,-0.564453,0.862305,0.6408059316077312,-32.90147417276835,110.61437097034742,0.5471699237823486,-0.1655927151441574,-0.229787677526474,0.7876430749893188
089897f7-a439-4954-b9ea-8c99d79603e5,586833ca-95b0-4750-b3b1-19762c7fe6c4,1761218968148689160,1.066208,-0.162125,0.902176,-0.016113,-0.561035,0.866211,0.6477410113963893,-32.891636299248674,110.45764492505843,0.548274040222168,-0.165907621383667,-0.22946009039878845,0.7869041562080383
089897f7-a439-4954-b9ea-8c99d79603e5,586833ca-95b0-4750-b3b1-19762c7fe6c4,1761218968156679160,1.674652,-0.587463,0.53978,-0.03418,-0.564453,0.87207,0.6581575426252051,-32.882745276876086,110.33099338191539,0.5491764545440674,-0.16619019210338593,-0.22916550934314728,0.7863008975982666
089897f7-a439-4954-b9ea-8c99d79603e5,586833ca-95b0-4750-b3b1-19762c7fe6c4,1761218968164672160,1.674652,-0.526428,0.902176,-0.020508,-0.568848,0.868164,0.6651028429574515,-32.86940191434143,110.24988533099754,0.5497650504112244,-0.1663362830877304,-0.2289227694272995,0.7859293222427368
089897f7-a439-4954-b9ea-8c99d79603e5,586833ca-95b0-4750-b3b1-19762c7fe6c4,1761218968172665160,1.674652,-0.343323,0.902176,-0.019531,-0.558105,0.873047,0.6715540361440758,-32.85178717554244,110.1012867973963,0.5508208274841309,-0.16659295558929443,-0.2285548746585846,0.78524249792099
089897f7-a439-4954-b9ea-8c99d79603e5,586833ca-95b0-4750-b3b1-19762c7fe6c4,1761218968180658160,1.979828,-0.343323,0.967026,-0.020508,-0.553223,0.86084,0.6765361718957655,-32.8361757236807,109.95329807780212,0.5518658757209778,-0.16684730350971222,-0.22820840775966644,0.7845551371574402
089897f7-a439-4954-b9ea-8c99d79603e5,586833ca-95b0-4750-b3b1-19762c7fe6c4,1761218968191328160,1.79863,-0.040054,1.333237,-0.013184,-0.550781,0.87207,0.6815090358412129,-32.8174380541517,109.82147959266679,0.5528036952018738,-0.16705377399921417,-0.2278638333082199,0.783950924873352
089897f7-a439-4954-b9ea-8c99d79603e5,586833ca-95b0-4750-b3b1-19762c7fe6c4,1761218968201998160,2.162933,-0.404358,1.333237,-0.000488,-0.551758,0.879394,0.6848886826777296,-32.796446061141104,109.68025839645456,0.5538050532341003,-0.16725662350654602,-0.22749760746955872,0.7833070158958435
089897f7-a439-4954-b9ea-8c99d79603e5,586833ca-95b0-4750-b3b1-19762c7fe6c4,1761218968212668160,1.857758,-0.099182,0.967026,-0.011719,-0.557129,0.864258,0.6942420526711824,-32.776578722960835,109.5265012288589,0.5549015402793884,-0.1675298810005188,-0.22709167003631592,0.7825900912284851
089897f7-a439-4954-b9ea-8c99d79603e5,586833ca-95b0-4750-b3b1-19762c7fe6c4,1761218968223344160,1.9207,-0.040054,1.211166,-0.020508,-0.559082,0.849609,0.709187199297377,-32.745627876835584,109.32328364980542,0.5563608407974243,-0.16788478195667267,-0.22651000320911407,0.7816459536552429
089897f7-a439-4954-b9ea-8c99d79603e5,586833ca-95b0-4750-b3b1-19762c7fe6c4,1761218968234019160,1.491547,0.083923,1.573563,-0.008789,-0.547363,0.854492,0.7151160267350406,-32.73227599719976,109.29951160256374,0.5565531253814697,-0.1679076850414276,-0.22635507583618164,0.7815490365028381
089897f7-a439-4954-b9ea-8c99d79603e5,586833ca-95b0-4750-b3b1-19762c7fe6c4,1761218968244694160,1.674652,0.144958,1.150131,-0.013184,-0.559082,0.86084,0.7273666821464408,-32.71788408137678,109.13958293347486,0.5576874017715454,-0.16823722422122955,-0.2259625792503357,0.7807828187942505
089897f7-a439-4954-b9ea-8c99d79603e5,586833ca-95b0-4750-b3b1-19762c7fe6c4,1761218968255340160,1.127243,0.448227,0.967026,-0.012695,-0.546387,0.862793,0.7397900239609222,-32.69990638614654,108.99958909254649,0.5586901903152466,-0.1685105562210083,-0.2255735993385315,0.7801191210746765
089897f7-a439-4954-b9ea-8c99d79603e5,586833ca-95b0-4750-b3b1-19762c7fe6c4,1761218968265988160,1.369476,0.511169,0.78392,-0.003418,-0.551758,0.873047,0.7456686369885626,-32.68469385052135,108.90484547464318,0.5593675971031189,-0.1686631143093109,-0.22530171275138855,0.7796792387962341
089897f7-a439-4954-b9ea-8c99d79603e5,586833ca-95b0-4750-b3b1-19762c7fe6c4,1761218968276636160,1.127243,0.265121,0.902176,-0.025879,-0.558594,0.863281,0.7572231340764235,-32.672149017394126,108.78775971379257,0.560204029083252,-0.16891081631183624,-0.22498725354671478,0.779115617275238
089897f7-a439-4954-b9ea-8c99d79603e5,586833ca-95b0-4750-b3b1-19762c7fe6c4,1761218968284660160,0.822067,0.326157,0.71907,-0.009766,-0.553711,0.868652,0.7697297400748072,-32.65738324030105,108.49349909039128,0.5622478723526001,-0.16950081288814545,-0.224390909075737,0.7776859402656555
089897f7-a439-4954-b9ea-8c99d79603e5,586833ca-95b0-4750-b3b1-19762c7fe6c4,1761218968292682160,0.761032,-0.162125,0.78392,-0.022949,-0.540039,0.85498,0.773492279454355,-32.65692988087314,108.36705794520078,0.5631136298179626,-0.16977161169052124,-0.22418217360973358,0.7770603895187378
089897f7-a439-4954-b9ea-8c99d79603e5,586833ca-95b0-4750-b3b1-19762c7fe6c4,1761218968300704160,0.69809,0.022888,0.78392,-0.032227,-0.549316,0.862305,0.7808549110776792,-32.65683750491929,108.25342322505563,0.5638984441757202,-0.17004327476024628,-0.22397685050964355,0.7764908671379089
089897f7-a439-4954-b9ea-8c99d79603e5,586833ca-95b0-4750-b3b1-19762c7fe6c4,1761218968308726160,0.150681,-0.040054,1.028061,-0.023437,-0.553711,0.866699,0.7842369722475231,-32.65583538441226,108.10869557280418,0.5648866891860962,-0.17034399509429932,-0.223738431930542,0.7757750749588013
089897f7-a439-4954-b9ea-8c99d79603e5,586833ca-95b0-4750-b3b1-19762c7fe6c4,1761218968319376160,0.150681,-0.402451,1.333237,-0.016113,-0.55127,0.85791,0.7926882506150755,-32.65360217796969,108.01585165672056,0.5655346512794495,-0.170571431517601,-0.22354348003864288,0.7753090858459473
089897f7-a439-4954-b9ea-8c99d79603e5,586833ca-95b0-4750-b3b1-19762c7fe6c4,1761218968330026160,0.209808,-0.404358,1.211166,-0.009277,-0.550293,0.853516,0.795128391290299,-32.658322409323,107.9715102357976,0.565832793712616,-0.17069761455059052,-0.2234974354505539,0.7750769853591919
089897f7-a439-4954-b9ea-8c99d79603e5,586833ca-95b0-4750-b3b1-19762c7fe6c4,1761218968340676160,-0.335693,-0.587463,1.455307,-0.004395,-0.558105,0.858398,0.7997334467243307,-32.663953813568554,107.8804316028727,0.566449761390686,-0.17093400657176971,-0.22337710857391357,0.7746087908744812
089897f7-a439-4954-b9ea-8c99d79603e5,586833ca-95b0-4750-b3b1-19762c7fe6c4,1761218968348670160,-0.703812,-0.402451,1.573563,-0.001465,-0.561523,0.868164,0.8040956817342257,-32.66994815239621,107.70680256180214,0.5676229000091553,-0.1713312566280365,-0.22313684225082397,0.773730993270874
089897f7-a439-4954-b9ea-8c99d79603e5,586833ca-95b0-4750-b3b1-19762c7fe6c4,1761218968356664160,-1.008987,-0.097275,1.085281,-0.00293,-0.559082,0.870117,0.8104701980237934,-32.675611252137415,107.61964911364745,0.5682156682014465,-0.17157185077667236,-0.22301319241523743,0.7732781171798706
089897f7-a439-4954-b9ea-8c99d79603e5,586833ca-95b0-4750-b3b1-19762c7fe6c4,1761218968364658160,-0.764847,-0.040054,0.66185,0.000488,-0.558105,0.855469,0.8087781590077255,-32.68499695843021,107.52207648248691,0.5688574314117432,-0.17179660499095917,-0.2229389101266861,0.7727776169776917
089897f7-a439-4954-b9ea-8c99d79603e5,586833ca-95b0-4750-b3b1-19762c7fe6c4,1761218968372652160,-1.008987,0.448227,0.66185,-0.009766,-0.556641,0.851074,0.8091142840675102,-32.6917915794068,107.40839514388911,0.5696148872375488,-0.1720535308122635,-0.22281262278556824,0.7721987366676331
089897f7-a439-4954-b9ea-8c99d79603e5,586833ca-95b0-4750-b3b1-19762c7fe6c4,1761218968383333160,-0.581741,0.265121,0.051498,-0.025391,-0.567871,0.87207,0.8149195169822954,-32.69552738333874,107.26937665425997,0.5705572962760925,-0.17238131165504456,-0.222600057721138,0.7714908123016357
089897f7-a439-4954-b9ea-8c99d79603e5,586833ca-95b0-4750-b3b1-19762c7fe6c4,1761218968394014160,-0.520706,-0.22316,0.051498,-0.017578,-0.563477,0.865723,0.8159696061596077,-32.698256564111325,107.13204143436515,0.5714796781539917,-0.17266854643821716,-0.22240647673606873,0.770799458026886
089897f7-a439-4954-b9ea-8c99d79603e5,586833ca-95b0-4750-b3b1-19762c7fe6c4,1761218968404695160,-0.703812,-0.711441,-0.257492,-0.013672,-0.56543,0.858398,0.8150403370685562,-32.70406789658829,107.00447644095313,0.5723273754119873,-0.17293864488601685,-0.22225794196128845,0.7701525092124939
089897f7-a439-4954-b9ea-8c99d79603e5,586833ca-95b0-4750-b3b1-19762c7fe6c4,1761218968415354160,-0.644684,-0.587463,-0.314713,-0.015137,-0.568359,0.863281,0.8219167292248732,-32.717143986418165,106.69719186457067,0.5743852853775024,-0.17364531755447388,-0.22184690833091736,0.7685783505439758
089897f7-a439-4954-b9ea-8c99d79603e5,586833ca-95b0-4750-b3b1-19762c7fe6c4,1761218968426012160,-0.032425,-0.711441,-0.497818,-0.025879,-0.569336,0.863769,0.8234408935979409,-32.72145091414073,106.61309943684877,0.5749459862709045,-0.17383979260921478,-0.2217407375574112,0.7681456208229065
089897f7-a439-4954-b9ea-8c99d79603e5,586833ca-95b0-4750-b3b1-19762c7fe6c4,1761218968436670160,0.272751,-1.138687,-0.619888,-0.025391,-0.57373,0.869141,0.8185806734446827,-32.7249054950139,106.50320032992181,0.5756680965423584,-0.17403706908226013,-0.2216215431690216,0.7675943374633789
089897f7-a439-4954-b9ea-8c99d79603e5,586833ca-95b0-4750-b3b1-19762c7fe6c4,1761218968447352160,0.761032,-1.138687,-1.10817,-0.008301,-0.574219,0.861328,0.8048228114052002,-32.72435505662335,106.33974404606896,0.5767366290092468,-0.17425820231437683,-0.22143861651420593,0.7667944431304932
089897f7-a439-4954-b9ea-8c99d79603e5,586833ca-95b0-4750-b3b1-19762c7fe6c4,1761218968458037160,1.312256,-1.075745,-1.169205,-0.01416,-0.557617,0.87207,0.7906498229322823,-32.72036123885479,106.21127689595828,0.5775742530822754,-0.17439156770706177,-0.2212877720594406,0.7661769390106201
089897f7-a439-4954-b9ea-8c99d79603e5,586833ca-95b0-4750-b3b1-19762c7fe6c4,1761218968468722160,1.491547,-1.319885,-1.234055,-0.011719,-0.564941,0.863769,0.7748994733770175,-32.71349036608244,106.07732163884711,0.5784489512443542,-0.1745104044675827,-0.22111722826957703,0.7655389904975891
089897f7-a439-4954-b9ea-8c99d79603e5,586833ca-95b0-4750-b3b1-19762c7fe6c4,1761218968479369160,1.735687,-0.770569,-1.291275,-0.012207,-0.574219,0.859863,0.7394386842671662,-32.69963013079859,105.78152191530977,0.5803747773170471,-0.17477431893348694,-0.22075293958187103,0.7641249895095825
089897f7-a439-4954-b9ea-8c99d79603e5,586833ca-95b0-4750-b3b1-19762c7fe6c4,1761218968490016160,1.9207,-0.890732,-1.234055,-0.008301,-0.564941,0.851562,0.725657881776358,-32.687316494081,105.6333258759382,0.5813537240028381,-0.1749056726694107,-0.22051437199115753,0.7634193897247314
089897f7-a439-4954-b9ea-8c99d79603e5,586833ca-95b0-4750-b3b1-19762c7fe6c4,1761218968500663160,1.737595,-0.833511,-1.413345,-0.013184,-0.55957,0.859375,0.7115573825318408,-32.673968017375216,105.51379897347778,0.5821418762207031,-0.1749742478132248,-0.22031433880329132,0.7628605961799622
089897f7-a439-4954-b9ea-8c99d79603e5,586833ca-95b0-4750-b3b1-19762c7fe6c4,1761218968508653160,1.617432,-0.282288,-1.596451,-0.019043,-0.560059,0.865234,0.7043650121258633,-32.65934463041124,105.39667888688984,0.5829285979270935,-0.17507745325565338,-0.22007443010807037,0.7623052000999451
089897f7-a439-4954-b9ea-8c99d79603e5,586833ca-95b0-4750-b3b1-19762c7fe6c4,1761218968516644160,1.674652,-0.526428,-1.53923,-0.017578,-0.550293,0.873047,0.6936936403207696,-32.64588730265433,105.27036649584957,0.5837675333023071,-0.17518076300621033,-0.2198459804058075,0.7617051601409912
089897f7-a439-4954-b9ea-8c99d79603e5,586833ca-95b0-4750-b3b1-19762c7fe6c4,1761218968524635160,2.040863,-0.587463,-1.169205,-0.01709,-0.550781,0.871094,0.6836182502957469,-32.634387517651035,105.197846186978,0.584246814250946,-0.17519454658031464,-0.2197098284959793,0.76137375831604
089897f7-a439-4954-b9ea-8c99d79603e5,586833ca-95b0-4750-b3b1-19762c7fe6c4,1761218968532626160,2.408981,-0.650406,-1.413345,-0.009766,-0.553223,0.867676,0.6701124550247316,-32.614765362327034,105.09727281279162,0.584917426109314,-0.17519792914390564,-0.2194942831993103,0.7609201073646545
089897f7-a439-4954-b9ea-8c99d79603e5,586833ca-95b0-4750-b3b1-19762c7fe6c4,1761218968543314160,2.040863,-0.282288,-1.234055,-0.018066,-0.555664,0.875977,0.6627901738218743,-32.59585039750928,104.9473047417491,0.5859262347221375,-0.17534016072750092,-0.21917644143104553,0.7602025270462036
089897f7-a439-4954-b9ea-8c99d79603e5,586833ca-95b0-4750-b3b1-19762c7fe6c4,1761218968554002160,2.592087,-0.22316,-1.234055,-0.020996,-0.550781,0.86084,0.654425754885635,-32.57855235873734,104.79331257674116,0.5869565010070801,-0.17549090087413788,-0.21886852383613586,0.7594612836837769
089897f7-a439-4954-b9ea-8c99d79603e5,586833ca-95b0-4750-b3b1-19762c7fe6c4,1761218968564690160,2.346039,-0.343323,-1.234055,-0.016113,-0.555664,0.866211,0.6502684510197322,-32.55841570890946,104.63615370310087,0.5880189538002014,-0.17566049098968506,-0.2185153067111969,0.7587015628814697
089897f7-a439-4954-b9ea-8c99d79603e5,586833ca-95b0-4750-b3b1-19762c7fe6c4,1761218968575370160,2.408981,-0.040054,-1.35231,-0.014648,-0.549316,0.884766,0.639639773908011,-32.52004124236641,104.36287285476152,0.5898625254631042,-0.17591416835784912,-0.2178962081670761,0.7573886513710022
089897f7-a439-4954-b9ea-8c99d79603e5,586833ca-95b0-4750-b3b1-19762c7fe6c4,1761218968586053160,2.468109,-0.343323,-1.47438,-0.014648,-0.558105,0.860352,0.6328534111529447,-32.50176099009276,104.21591909784073,0.5908471941947937,-0.17605479061603546,-0.21758441627025604,0.7566777467727661
089897f7-a439-4954-b9ea-8c99d79603e5,586833ca-95b0-4750-b3b1-19762c7fe6c4,1761218968596736160,2.162933,-0.160217,-0.925064,-0.034668,-0.559082,0.875,0.6301531700301947,-32.482034267438976,104.20090978047999,0.5909700393676758,-0.1759641468524933,-0.21744470298290253,0.7566430568695068
089897f7-a439-4954-b9ea-8c99d79603e5,586833ca-95b0-4750-b3b1-19762c7fe6c4,1761218968604719160,2.897263,-0.528336,-0.562668,-0.01123,-0.564453,0.861816,0.6214961404158936,-32.45859147592286,104.14478013565271,0.591358482837677,-0.17589300870895386,-0.21724803745746613,0.7564125657081604
089897f7-a439-4954-b9ea-8c99d79603e5,586833ca-95b0-4750-b3b1-19762c7fe6c4,1761218968612704160,3.200531,-0.099182,-0.257492,-0.013184,-0.550293,0.866699,0.6209531919386339,-32.431642190963764,104.01215595866755,0.5922719836235046,-0.17600202560424805,-0.21686895191669464,0.7557809948921204
089897f7-a439-4954-b9ea-8c99d79603e5,586833ca-95b0-4750-b3b1-19762c7fe6c4,1761218968620689160,3.322601,0.144958,-0.131607,-0.016113,-0.557129,0.880371,0.6198173260683635,-32.40140971090937,103.90664663384187,0.5930097699165344,-0.17603832483291626,-0.21651293337345123,0.7552959322929382
089897f7-a439-4954-b9ea-8c99d79603e5,586833ca-95b0-4750-b3b1-19762c7fe6c4,1761218968628674160,3.753662,0.389099,0.051498,-0.038574,-0.558594,0.874512,0.6325853801464937,-32.37240691256651,103.85187179194101,0.5934373140335083,-0.17607633769512177,-0.21617107093334198,0.7550491690635681
089897f7-a439-4954-b9ea-8c99d79603e5,586833ca-95b0-4750-b3b1-19762c7fe6c4,1761218968639360160,3.324509,0.448227,0.108719,-0.022461,-0.55127,0.879883,0.6433036938711796,-32.33860365805207,103.75023342237336,0.5941764712333679,-0.17616403102874756,-0.21573609113693237,0.7545716762542725
089897f7-a439-4954-b9ea-8c99d79603e5,586833ca-95b0-4750-b3b1-19762c7fe6c4,1761218968650046160,3.202438,0.448227,0.051498,-0.021973,-0.547363,0.869141,0.6547052865843773,-32.30707650575917,103.63118198460738,0.5950276851654053,-0.1763000637292862,-0.2152857780456543,0.7539975643157959
089897f7-a439-4954-b9ea-8c99d79603e5,586833ca-95b0-4750-b3b1-19762c7fe6c4,1761218968660732160,3.627777,0.511169,0.173569,-0.018066,-0.538086,0.89209,0.6629976049575783,-32.274879913204174,103.49275573001727,0.5960007905960083,-0.1764477789402008,-0.21481731534004211,0.7533277273178101
089897f7-a439-4954-b9ea-8c99d79603e5,586833ca-95b0-4750-b3b1-19762c7fe6c4,1761218968671435160,3.568649,0.631332,-0.009537,-0.030762,-0.532715,0.87793,0.6874177856018868,-32.20330745917371,103.34399246357754,0.597128689289093,-0.17651556432247162,-0.2139894962310791,0.7526540160179138
089897f7-a439-4954-b9ea-8c99d79603e5,586833ca-95b0-4750-b3b1-19762c7fe6c4,1761218968682138160,3.505707,0.205994,-0.009537,-0.024414,-0.553711,0.883301,0.69821737673053,-32.16805233555584,103.24001030234851,0.5978831052780151,-0.1765974462032318,-0.21354085206985474,0.7521631121635437
089897f7-a439-4954-b9ea-8c99d79603e5,586833ca-95b0-4750-b3b1-19762c7fe6c4,1761218968692841160,3.627777,0.083923,0.413895,-0.023437,-0.549805,0.873047,0.7061584178126732,-32.13107974336468,103.18012125835355,0.5983449220657349,-0.17656894028186798,-0.21316379308700562,0.7519094944000244
089897f7-a439-4954-b9ea-8c99d79603e5,586833ca-95b0-4750-b3b1-19762c7fe6c4,1761218968700812160,4.056931,-0.162125,0.230789,-0.019531,-0.541504,0.87207,0.7115061585619166,-32.08977856648314,103.18060724481431,0.5984119176864624,-0.17638841271400452,-0.21286483108997345,0.7519832849502563
089897f7-a439-4954-b9ea-8c99d79603e5,586833ca-95b0-4750-b3b1-19762c7fe6c4,1761218968708784160,4.240036,-0.040054,0.356674,-0.020996,-0.547363,0.864258,0.7125424621954976,-32.05412812005282,103.05679883817831,0.5992779731750488,-0.17643950879573822,-0.2124342918395996,0.7514030933380127
089897f7-a439-4954-b9ea-8c99d79603e5,586833ca-95b0-4750-b3b1-19762c7fe6c4,1761218968716756160,4.116058,0.022888,0.66185,-0.018555,-0.526855,0.871094,0.7174960500842658,-32.01482212713466,102.92648138844231,0.6001986265182495,-0.17650848627090454,-0.21194930374622345,0.7507888078689575
089897f7-a439-4954-b9ea-8c99d79603e5,586833ca-95b0-4750-b3b1-19762c7fe6c4,1761218968724728160,3.751755,0.143051,0.53978,-0.015625,-0.538086,0.87207,0.7265461493334185,-31.976010685477313,102.80765227183736,0.6010501980781555,-0.17658479511737823,-0.21146386861801147,0.7502262592315674
089897f7-a439-4954-b9ea-8c99d79603e5,586833ca-95b0-4750-b3b1-19762c7fe6c4,1761218968735376160,3.810883,0.205994,0.66185,-0.024414,-0.533691,0.868652,0.7383131166859199,-31.93949913963198,102.70555943483933,0.6017932891845703,-0.1766592562198639,-0.2110050916671753,0.7497420310974121
089897f7-a439-4954-b9ea-8c99d79603e5,586833ca-95b0-4750-b3b1-19762c7fe6c4,1761218968746024160,4.177094,0.083923,0.478745,-0.009766,-0.541504,0.857422,0.7446406795336178,-31.90787600719506,102.60604932106891,0.6025018692016602,-0.17671829462051392,-0.21061095595359802,0.7492697238922119
089897f7-a439-4954-b9ea-8c99d79603e5,586833ca-95b0-4750-b3b1-19762c7fe6c4,1761218968756672160,3.629684,0.265121,0.478745,-0.01416,-0.530762,0.871582,0.752157900356235,-31.869369294205054,102.50981908300919,0.6032007932662964,-0.17674247920513153,-0.21017053723335266,0.748825192451477
089897f7-a439-4954-b9ea-8c99d79603e5,586833ca-95b0-4750-b3b1-19762c7fe6c4,1761218968767340160,3.568649,0.265121,0.597,-0.014648,-0.519531,0.873047,0.7646631499385834,-31.79502761735763,102.34227554000319,0.6044262051582336,-0.17674095928668976,-0.20935919880867004,0.7480643391609192
089897f7-a439-4954-b9ea-8c99d79603e5,586833ca-95b0-4750-b3b1-19762c7fe6c4,1761218968778011160,3.263474,0.448227,0.356674,-0.026855,-0.54248,0.865234,0.777401136031805,-31.765396598632645,102.24223048328433,0.6051454544067383,-0.1768510490655899,-0.20894365012645721,0.7475728392601013
089897f7-a439-4954-b9ea-8c99d79603e5,586833ca-95b0-4750-b3b1-19762c7fe6c4,1761218968788682160,3.017426,0.083923,0.478745,-0.008301,-0.53125,0.869629,0.7788984036646276,-31.740853060981575,102.15679752246095,0.6057410836219788,-0.1768874228000641,-0.20864330232143402,0.7471656203269958
089897f7-a439-4954-b9ea-8c99d79603e5,586833ca-95b0-4750-b3b1-19762c7fe6c4,1761218968799362160,2.164841,0.265121,0.230789,-0.020996,-0.527832,0.863281,0.7844310234503719,-31.716678913201388,102.10112391892915,0.6061492562294006,-0.1768975704908371,-0.20837001502513885,0.74690842628479
089897f7-a439-4954-b9ea-8c99d79603e5,586833ca-95b0-4750-b3b1-19762c7fe6c4,1761218968810044160,1.9207,-0.097275,0.173569,-0.011719,-0.519043,0.865723,0.7892769284067591,-31.694093166544825,101.9869447281954,0.6069348454475403,-0.17701759934425354,-0.20802041888237,0.7463393211364746
089897f7-a439-4954-b9ea-8c99d79603e5,586833ca-95b0-4750-b3b1-19762c7fe6c4,1761218968820726160,2.103806,-0.162125,0.173569,-0.015625,-0.528809,0.872559,0.7929336358570716,-31.67552647078968,101.8786301273526,0.607673704624176,-0.1771399825811386,-0.20771239697933197,0.7457945942878723
089897f7-a439-4954-b9ea-8c99d79603e5,586833ca-95b0-4750-b3b1-19762c7fe6c4,1761218968831360160,1.247406,0.205994,-0.009537,-0.025391,-0.533203,0.884277,0.8049839718881772,-31.646551796127312,101.69277057480082,0.6089465618133545,-0.17740173637866974,-0.20717184245586395,0.7448439598083496
089897f7-a439-4954-b9ea-8c99d79603e5,586833ca-95b0-4750-b3b1-19762c7fe6c4,1761218968841994160,1.617432,0.205994,-0.074387,-0.016602,-0.529297,0.869629,0.8084640709976265,-31.629758796246193,101.5676575262967,0.6097902059555054,-0.17756150662899017,-0.2068500965833664,0.7442048192024231
089897f7-a439-4954-b9ea-8c99d79603e5,586833ca-95b0-4750-b3b1-19762c7fe6c4,1761218968852628160,1.312256,-0.099182,0.051498,-0.03125,-0.544434,0.870117,0.816967625364034,-31.62807405412564,101.44515782881729,0.6106032133102417,-0.17782877385616302,-0.20660388469696045,0.743542492389679
089897f7-a439-4954-b9ea-8c99d79603e5,586833ca-95b0-4750-b3b1-19762c7fe6c4,1761218968860642160,1.064301,-0.465393,-0.009537,-0.025879,-0.522461,0.875,0.8235518614285828,-31.62540316387024,101.35336374282318,0.6112143993377686,-0.17802274227142334,-0.20640887320041656,0.7430478930473328
089897f7-a439-4954-b9ea-8c99d79603e5,586833ca-95b0-4750-b3b1-19762c7fe6c4,1761218968868654160,0.69809,-0.587463,0.295639,-0.029785,-0.53418,0.873535,0.8299510971986478,-31.623915866201646,101.30674914951503,0.6115303039550781,-0.17814026772975922,-0.20629261434078217,0.7427920699119568
089897f7-a439-4954-b9ea-8c99d79603e5,586833ca-95b0-4750-b3b1-19762c7fe6c4,1761218968876666160,0.944138,-0.4673,0.108719,-0.030273,-0.533203,0.870605,0.83730846366712,-31.623847589611064,101.18115576260581,0.6123573780059814,-0.17841355502605438,-0.20605748891830444,0.742110013961792
089897f7-a439-4954-b9ea-8c99d79603e5,586833ca-95b0-4750-b3b1-19762c7fe6c4,1761218968884678160,0.69809,-0.648499,0.478745,-0.007812,-0.532227,0.875488,0.8332442415781026,-31.619159760829746,101.08815348430049,0.6129590272903442,-0.17852947115898132,-0.20590391755104065,0.7416279315948486
089897f7-a439-4954-b9ea-8c99d79603e5,586833ca-95b0-4750-b3b1-19762c7fe6c4,1761218968892742160,0.638962,-0.528336,0.597,-0.013184,-0.525391,0.873047,0.8360508546504332,-31.613922144706088,101.06849095294915,0.6130989789962769,-0.17855507135391235,-0.20582425594329834,0.7415282130241394
089897f7-a439-4954-b9ea-8c99d79603e5,586833ca-95b0-4750-b3b1-19762c7fe6c4,1761218968900806160,0.638962,-0.711441,0.108719,-0.020508,-0.523926,0.867676,0.8375239939717004,-31.611768929815312,101.02280924226417,0.6134003400802612,-0.17863517999649048,-0.20573119819164276,0.7412854433059692
089897f7-a439-4954-b9ea-8c99d79603e5,586833ca-95b0-4750-b3b1-19762c7fe6c4,1761218968908870160,0.089645,-0.833511,0.413895,-0.021484,-0.550781,0.87793,0.8422212482337615,-31.616715423016164,100.93872224077194,0.6139453053474426,-0.17884282767772675,-0.20560698211193085,0.7408185601234436
089897f7-a439-4954-b9ea-8c99d79603e5,586833ca-95b0-4750-b3b1-19762c7fe6c4,1761218968916934160,0.026703,-0.892639,0.295639,-0.021484,-0.530273,0.875977,0.8452777069843711,-31.6157667395429,100.82962108871301,0.6146572232246399,-0.1790531873703003,-0.2054140716791153,0.7402306795120239
089897f7-a439-4954-b9ea-8c99d79603e5,586833ca-95b0-4750-b3b1-19762c7fe6c4,1761218968927518160,0.087738,-0.892639,0.295639,-0.026367,-0.52832,0.866211,0.8503026249152412,-31.614441780469306,100.72462868597474,0.6153461337089539,-0.17926667630672455,-0.20521436631679535,0.7396618127822876
089897f7-a439-4954-b9ea-8c99d79603e5,586833ca-95b0-4750-b3b1-19762c7fe6c4,1761218968938102160,-0.278473,-0.953674,0.66185,-0.020508,-0.525879,0.881836,0.8527093152657015,-31.610765455326213,100.62666399925388,0.6159879565238953,-0.17943790555000305,-0.20502430200576782,0.7391386032104492
089897f7-a439-4954-b9ea-8c99d79603e5,586833ca-95b0-4750-b3b1-19762c7fe6c4,1761218968948686160,-0.032425,-0.772476,0.230789,-0.012207,-0.539062,0.879394,0.8524004159742525,-31.60934536379699,100.5167174236007,0.6166983842849731,-0.17962493002414703,-0.20484451949596405,0.7385504245758057
089897f7-a439-4954-b9ea-8c99d79603e5,586833ca-95b0-4750-b3b1-19762c7fe6c4,1761218968956679160,-1.377106,-0.835419,0.101089,-0.006836,-0.533203,0.881836,0.8460220898435353,-31.61208725273396,100.45760991890054,0.6170638203620911,-0.17970417439937592,-0.20480391383171082,0.7382370829582214
089897f7-a439-4954-b9ea-8c99d79603e5,586833ca-95b0-4750-b3b1-19762c7fe6c4,1761218968964672160,-1.07193,-0.652313,-0.204086,-0.012695,-0.550781,0.874023,0.8427403726773072,-31.620951918308755,100.47700529465949,0.6169199347496033,-0.17969584465026855,-0.2049093097448349,0.7383301258087158
089897f7-a439-4954-b9ea-8c99d79603e5,586833ca-95b0-4750-b3b1-19762c7fe6c4,1761218968972665160,-1.070023,-0.589371,-0.387192,-0.003906,-0.540039,0.873047,0.8368999007800378,-31.622952875501852,100.44104588896587,0.6171382069587708,-0.1797332465648651,-0.20489729940891266,0.7381418943405151
089897f7-a439-4954-b9ea-8c99d79603e5,586833ca-95b0-4750-b3b1-19762c7fe6c4,1761218968980658160,-0.94986,-0.652313,-0.326157,0.000977,-0.536621,0.874512,0.8302530669285006,-31.621313793394734,100.32280718251508,0.6178900599479675,-0.17989300191402435,-0.20473699271678925,0.7375181913375854
089897f7-a439-4954-b9ea-8c99d79603e5,586833ca-95b0-4750-b3b1-19762c7fe6c4,1761218968991314160,-1.132965,-0.709534,-0.265121,-0.015625,-0.541504,0.870117,0.8302971489220244,-31.621113845647383,100.25564129400202,0.6183226108551025,-0.18001218140125275,-0.20462998747825623,0.7371562123298645
089897f7-a439-4954-b9ea-8c99d79603e5,586833ca-95b0-4750-b3b1-19762c7fe6c4,1761218969001970160,-0.825882,-0.772476,-0.631332,-0.01416,-0.531738,0.877441,0.8238397754528263,-31.62268195240893,100.17073039707455,0.618854820728302,-0.18013067543506622,-0.20454153418540955,0.7367050647735596
089897f7-a439-4954-b9ea-8c99d79603e5,586833ca-95b0-4750-b3b1-19762c7fe6c4,1761218969012626160,-0.825882,-1.077652,-0.265121,-0.016602,-0.537109,0.876465,0.826001143280333,-31.62342570019692,100.05574805086414,0.6195964813232422,-0.18035371601581573,-0.20435379445552826,0.7360789179801941
089897f7-a439-4954-b9ea-8c99d79603e5,586833ca-95b0-4750-b3b1-19762c7fe6c4,1761218969023307160,-0.825882,-1.199722,0.040054,-0.018555,-0.530273,0.868164,0.8053812644591992,-31.636460461799494,99.88269216040675,0.6206513047218323,-0.180600106716156,-0.20427678525447845,0.7351506352424622
089897f7-a439-4954-b9ea-8c99d79603e5,586833ca-95b0-4750-b3b1-19762c7fe6c4,1761218969033986160,-0.888824,-0.835419,-0.265121,-0.010742,-0.537109,0.875,0.8066678128697177,-31.636441848255455,99.8331893699432,0.620971143245697,-0.18069647252559662,-0.204191654920578,0.7348805069923401
089897f7-a439-4954-b9ea-8c99d79603e5,586833ca-95b0-4750-b3b1-19762c7fe6c4,1761218969044665160,-0.703812,-0.711441,-0.020981,-0.006348,-0.545898,0.875488,0.8042811933072148,-31.63985869681505,99.76083653482495,0.6214256882667542,-0.1808285117149353,-0.2041124403476715,0.7344856858253479
089897f7-a439-4954-b9ea-8c99d79603e5,586833ca-95b0-4750-b3b1-19762c7fe6c4,1761218969052669160,-1.070023,-0.894547,0.162125,-0.004883,-0.550293,0.879394,0.8038451342069265,-31.64307026651975,99.65807511775422,0.622078537940979,-0.18102604150772095,-0.2039732038974762,0.7339228391647339
089897f7-a439-4954-b9ea-8c99d79603e5,586833ca-95b0-4750-b3b1-19762c7fe6c4,1761218969060672160,-0.459671,-0.894547,0.040054,-0.005371,-0.537109,0.87793,0.7968869719323528,-31.648199961588357,99.64906566804547,0.622116208076477,-0.18102523684501648,-0.20402970910072327,0.7338753938674927
089897f7-a439-4954-b9ea-8c99d79603e5,586833ca-95b0-4750-b3b1-19762c7fe6c4,1761218969068675160,-0.581741,-0.772476,-0.020981,-0.008789,-0.533691,0.881836,0.7971209366319691,-31.64413950738941,99.62323192154335,0.6222881078720093,-0.18105077743530273,-0.2039615362882614,0.7337422966957092
089897f7-a439-4954-b9ea-8c99d79603e5,586833ca-95b0-4750-b3b1-19762c7fe6c4,1761218969076678160,-0.886917,-0.528336,-0.020981,-0.009766,-0.541504,0.870117,0.7960658601340622,-31.64595585066749,99.5538273553336,0.6227278113365173,-0.18117734789848328,-0.20386923849582672,0.7333635687828064
089897f7-a439-4954-b9ea-8c99d79603e5,586833ca-95b0-4750-b3b1-19762c7fe6c4,1761218969087350160,-0.703812,-0.589371,-0.204086,-0.016602,-0.533203,0.873047,0.7971003547769808,-31.64395874346145,99.43295721648909,0.6235058307647705,-0.18138808012008667,-0.20365957915782928,0.7327083945274353
089897f7-a439-4954-b9ea-8c99d79603e5,586833ca-95b0-4750-b3b1-19762c7fe6c4,1761218969098022160,-0.703812,-0.406265,-0.143051,-0.010742,-0.532715,0.873535,0.7967262453882347,-31.6423686383081,99.31778099861891,0.6242436766624451,-0.18158167600631714,-0.20346900820732117,0.7320848703384399
089897f7-a439-4954-b9ea-8c99d79603e5,586833ca-95b0-4750-b3b1-19762c7fe6c4,1761218969108694160,-0.703812,-0.162125,-0.387192,0.0,-0.542969,0.879883,0.7945031805617466,-31.642168449541558,99.22003349852302,0.6248642802238464,-0.1817398965358734,-0.20332488417625427,0.7315559983253479
089897f7-a439-4954-b9ea-8c99d79603e5,586833ca-95b0-4750-b3b1-19762c7fe6c4,1761218969119366160,-1.192093,0.326157,-0.570297,-0.004883,-0.537598,0.884766,0.7871724273703146,-31.64143100506969,98.99774884372941,0.6262702941894531,-0.18208321928977966,-0.203007310628891,0.7303555607795715
089897f7-a439-4954-b9ea-8c99d79603e5,586833ca-95b0-4750-b3b1-19762c7fe6c4,1761218969130039160,-1.253128,0.265121,-0.753403,-0.018555,-0.537598,0.873535,0.7863528258764682,-31.651325730964334,98.99107501146507,0.6262965202331543,-0.1821436583995819,-0.2030644565820694,0.730302095413208
089897f7-a439-4954-b9ea-8c99d79603e5,586833ca-95b0-4750-b3b1-19762c7fe6c4,1761218969140712160,-1.497269,0.143051,-0.631332,-0.007324,-0.535645,0.875,0.7837309334632548,-31.664305406841347,98.9409434661122,0.6265918016433716,-0.18228644132614136,-0.20308205485343933,0.7300081849098206
089897f7-a439-4954-b9ea-8c99d79603e5,586833ca-95b0-4750-b3b1-19762c7fe6c4,1761218969151370160,-1.86348,-0.4673,-0.570297,-0.013184,-0.539551,0.868652,0.7810581891034227,-31.676527039072,98.84948097990201,0.6271511316299438,-0.182498037815094,-0.20302918553352356,0.7294895648956299
089897f7-a439-4954-b9ea-8c99d79603e5,586833ca-95b0-4750-b3b1-19762c7fe6c4,1761218969162030160,-2.534866,-1.199722,-0.326157,-0.020508,-0.540527,0.869629,0.7798372135763485,-31.695912615146668,98.78213946440272,0.627548336982727,-0.18271523714065552,-0.2030523419380188,0.7290870547294617
089897f7-a439-4954-b9ea-8c99d79603e5,586833ca-95b0-4750-b3b1-19762c7fe6c4,1761218969172690160,-2.473831,-1.688004,0.34523,-0.029297,-0.542969,0.858887,0.7779919853879314,-31.71773231915308,98.71220323781866,0.6279569864273071,-0.18294644355773926,-0.2030901163816452,0.7286665439605713
089897f7-a439-4954-b9ea-8c99d79603e5,586833ca-95b0-4750-b3b1-19762c7fe6c4,1761218969180705160,-2.841949,-1.811981,0.711441,-0.024902,-0.536621,0.874023,0.7590762495957188,-31.76648890054564,98.54064958908009,0.6289398074150085,-0.1833966076374054,-0.20323047041893005,0.727665901184082
089897f7-a439-4954-b9ea-8c99d79603e5,586833ca-95b0-4750-b3b1-19762c7fe6c4,1761218969188718160,-2.534866,-1.565933,1.199722,-0.026367,-0.552246,0.874512,0.7616429571709218,-31.791406636348842,98.4510225763642,0.629475474357605,-0.1837080717086792,-0.20323149859905243,0.7271236777305603
089897f7-a439-4954-b9ea-8c99d79603e5,586833ca-95b0-4750-b3b1-19762c7fe6c4,1761218969196731160,-2.597809,-1.567841,1.504898,-0.020508,-0.558594,0.863769,0.7574336645391617,-31.821504915391618,98.38141661396129,0.6298637986183167,-0.18396951258182526,-0.2033345103263855,0.7266923785209656
089897f7-a439-4954-b9ea-8c99d79603e5,586833ca-95b0-4750-b3b1-19762c7fe6c4,1761218969204744160,-2.534866,-1.688004,1.932144,-0.020508,-0.566895,0.875,0.7557779823337477,-31.84544892837692,98.32319478731642,0.6301935315132141,-0.184193417429924,-0.20340238511562347,0.7263306975364685
089897f7-a439-4954-b9ea-8c99d79603e5,586833ca-95b0-4750-b3b1-19762c7fe6c4,1761218969215397160,-1.98555,-1.382828,2.054214,-0.021973,-0.558105,0.866699,0.7583986832541891,-31.86540198516202,98.27516660093633,0.6304721236228943,-0.18440455198287964,-0.20343758165836334,0.7260254621505737
089897f7-a439-4954-b9ea-8c99d79603e5,586833ca-95b0-4750-b3b1-19762c7fe6c4,1761218969226050160,-1.802444,-1.199722,2.298355,-0.01123,-0.560547,0.875,0.7624520445174907,-31.882468089188645,98.28130914074046,0.6304143667221069,-0.18451279401779175,-0.20353364944458008,0.7260212302207947
089897f7-a439-4954-b9ea-8c99d79603e5,586833ca-95b0-4750-b3b1-19762c7fe6c4,1761218969236703160,-1.682281,-0.835419,2.298355,-0.022461,-0.562012,0.879394,0.7715697261983494,-31.89840954697406,98.27001623128746,0.630477786064148,-0.18467795848846436,-0.20356662571430206,0.7259148359298706
089897f7-a439-4954-b9ea-8c99d79603e5,586833ca-95b0-4750-b3b1-19762c7fe6c4,1761218969247381160,-0.703812,-0.650406,2.23732,-0.003418,-0.555664,0.884277,0.7767268840828182,-31.907136884739888,98.21751295261913,0.6308061480522156,-0.18485169112682343,-0.20350904762744904,0.7256014347076416
089897f7-a439-4954-b9ea-8c99d79603e5,586833ca-95b0-4750-b3b1-19762c7fe6c4,1761218969258060160,-0.154495,-0.528336,2.054214,-0.010742,-0.543457,0.882812,0.7836474475999725,-31.90925549864286,98.18741467312056,0.6310057640075684,-0.18496057391166687,-0.20343583822250366,0.7254205942153931
089897f7-a439-4954-b9ea-8c99d79603e5,586833ca-95b0-4750-b3b1-19762c7fe6c4,1761218969268739160,0.516891,-0.894547,1.993179,-0.02002,-0.558105,0.882324,0.7918478202505855,-31.91233760272387,98.18807578690402,0.631011426448822,-0.18502819538116455,-0.20341132581233978,0.7254053354263306
089897f7-a439-4954-b9ea-8c99d79603e5,586833ca-95b0-4750-b3b1-19762c7fe6c4,1761218969276900160,0.761032,-0.589371,1.565933,-0.016113,-0.546387,0.874023,0.7922340731170697,-31.90244132293707,98.0469378323654,0.6319202184677124,-0.185226708650589,-0.20311835408210754,0.7246452569961548
089897f7-a439-4954-b9ea-8c99d79603e5,586833ca-95b0-4750-b3b1-19762c7fe6c4,1761218969285061160,0.577927,-0.406265,1.199722,-0.003418,-0.553223,0.865723,0.7910423768573097,-31.904660721672354,97.93408990776103,0.6326280236244202,-0.1854313164949417,-0.20295649766921997,0.7240204215049744
089897f7-a439-4954-b9ea-8c99d79603e5,586833ca-95b0-4750-b3b1-19762c7fe6c4,1761218969293222160,0.576019,-0.469208,0.650406,-0.004883,-0.542969,0.868164,0.7867971541490619,-31.905973406826426,97.84635730255005,0.6331726312637329,-0.18556706607341766,-0.2028462439775467,0.7235403060913086
089897f7-a439-4954-b9ea-8c99d79603e5,586833ca-95b0-4750-b3b1-19762c7fe6c4,1761218969301383160,0.638962,-0.040054,0.34523,-0.003418,-0.535156,0.868652,0.7834276839193737,-31.906071982891117,97.7493293533165,0.6337789297103882,-0.18571801483631134,-0.20270830392837524,0.7230092883110046
089897f7-a439-4954-b9ea-8c99d79603e5,586833ca-95b0-4750-b3b1-19762c7fe6c4,1761218969311804160,0.69809,0.144958,-0.265121,0.001465,-0.537109,0.866699,0.7764082949705384,-31.90624136411784,97.63039125346738,0.6345163583755493,-0.1858850121498108,-0.20255537331104279,0.7223621010780334
089897f7-a439-4954-b9ea-8c99d79603e5,586833ca-95b0-4750-b3b1-19762c7fe6c4,1761218969322225160,0.69809,-0.102997,-0.814438,-0.008789,-0.529785,0.874512,0.7735060343240742,-31.903235980090386,97.55258374740761,0.6350061893463135,-0.18598763644695282,-0.20242619514465332,0.721941351890564
089897f7-a439-4954-b9ea-8c99d79603e5,586833ca-95b0-4750-b3b1-19762c7fe6c4,1761218969332646160,0.699997,0.265121,-1.241684,-0.000488,-0.542969,0.874023,0.7654664150337951,-31.89556335393916,97.52325954806604,0.6351885199546814,-0.18594644963741302,-0.202374666929245,0.721805989742279
089897f7-a439-4954-b9ea-8c99d79603e5,586833ca-95b0-4750-b3b1-19762c7fe6c4,1761218969343327160,0.638962,0.265121,-1.485825,-0.012207,-0.519531,0.868164,0.764475091020429,-31.887206955322398,97.43541228578006,0.63575279712677,-0.18604914844036102,-0.2021847814321518,0.721335768699646
089897f7-a439-4954-b9ea-8c99d79603e5,586833ca-95b0-4750-b3b1-19762c7fe6c4,1761218969354011160,0.638962,0.631332,-1.607895,-0.032715,-0.53418,0.865234,0.7659615499939588,-31.88107042135313,97.34668325478358,0.6363232135772705,-0.18618105351924896,-0.2019936740398407,0.7208521962165833
089897f7-a439-4954-b9ea-8c99d79603e5,586833ca-95b0-4750-b3b1-19762c7fe6c4,1761218969364695160,0.335693,0.995636,-1.607895,-0.027344,-0.527344,0.86084,0.7682285245159267,-31.8686162822839,97.27032913304937,0.6368265748023987,-0.18626093864440918,-0.20177841186523438,0.7204472422599792
089897f7-a439-4954-b9ea-8c99d79603e5,586833ca-95b0-4750-b3b1-19762c7fe6c4,1761218969372689160,-0.09346,1.058578,-1.485825,-0.007324,-0.529785,0.88623,0.7759075545147426,-31.85840563185851,97.07485407812227,0.6380838751792908,-0.18659646809101105,-0.2013533115386963,0.7193660736083984
089897f7-a439-4954-b9ea-8c99d79603e5,586833ca-95b0-4750-b3b1-19762c7fe6c4,1761218969380684160,-0.520706,1.241684,-1.66893,-0.020508,-0.527832,0.879394,0.7786936353994232,-31.855993995531858,96.95776524718612,0.6388272047042847,-0.18680621683597565,-0.20113183557987213,0.7187135219573975
089897f7-a439-4954-b9ea-8c99d79603e5,586833ca-95b0-4750-b3b1-19762c7fe6c4,1761218969388679160,-0.644684,1.483917,-1.180649,-0.030273,-0.522461,0.869141,0.7911195209285014,-31.858504075399427,96.85672775131461,0.6394785642623901,-0.18707528710365295,-0.20091348886489868,0.7181251645088196
089897f7-a439-4954-b9ea-8c99d79603e5,586833ca-95b0-4750-b3b1-19762c7fe6c4,1761218969396674160,-0.583649,0.69046,-1.119614,-0.015137,-0.529297,0.881836,0.7955991595689391,-31.857578912859967,96.77493165809291,0.6400002837181091,-0.1872415691614151,-0.20074906945228577,0.7176628708839417
089897f7-a439-4954-b9ea-8c99d79603e5,586833ca-95b0-4750-b3b1-19762c7fe6c4,1761218969407323160,-0.94986,0.995636,-0.936508,-0.024902,-0.526367,0.869629,0.8066690166351218,-31.86232036908437,96.69248557533193,0.6405285000801086,-0.18748162686824799,-0.20058220624923706,0.7171754240989685
089897f7-a439-4954-b9ea-8c99d79603e5,586833ca-95b0-4750-b3b1-19762c7fe6c4,1761218969417972160,-0.94986,0.69046,-1.058578,-0.035645,-0.529785,0.873535,0.8148423605480201,-31.865303197049062,96.65028292035569,0.640802264213562,-0.18762321770191193,-0.2004861682653427,0.7169206738471985
089897f7-a439-4954-b9ea-8c99d79603e5,586833ca-95b0-4750-b3b1-19762c7fe6c4,1761218969428621160,-1.192093,0.143051,-0.814438,-0.03125,-0.532227,0.872559,0.822081789392646,-31.872231314137075,96.66760829173609,0.6406958103179932,-0.18767677247524261,-0.20051756501197815,0.716992974281311
089897f7-a439-4954-b9ea-8c99d79603e5,586833ca-95b0-4750-b3b1-19762c7fe6c4,1761218969439321160,-1.436234,-0.22316,-0.204086,-0.025879,-0.532227,0.882324,0.8305750638703071,-31.86585186014421,96.58431170778039,0.6412415504455566,-0.1878400444984436,-0.20029352605342865,0.7165248394012451
089897f7-a439-4954-b9ea-8c99d79603e5,586833ca-95b0-4750-b3b1-19762c7fe6c4,1761218969450023160,-1.192093,-0.162125,-0.204086,-0.030273,-0.530762,0.874023,0.8403447897694141,-31.86907381548316,96.49224811955183,0.6418290734291077,-0.18807990849018097,-0.20010803639888763,0.715987503528595
089897f7-a439-4954-b9ea-8c99d79603e5,586833ca-95b0-4750-b3b1-19762c7fe6c4,1761218969460725160,-1.192093,-0.34523,0.406265,-0.024902,-0.522949,0.872559,0.8472923088089275,-31.863641697495275,96.405348280628,0.6423923969268799,-0.18824467062950134,-0.19989235699176788,0.7154991030693054
089897f7-a439-4954-b9ea-8c99d79603e5,586833ca-95b0-4750-b3b1-19762c7fe6c4,1761218969471354160,-1.314163,-0.406265,0.162125,-0.010254,-0.528809,0.883789,0.8508417696849664,-31.867997419150647,96.22955333901146,0.6434887051582336,-0.18859757483005524,-0.1996106654405594,0.7144989967346191
089897f7-a439-4954-b9ea-8c99d79603e5,586833ca-95b0-4750-b3b1-19762c7fe6c4,1761218969481983160,-1.375198,-0.4673,0.528336,-0.025391,-0.522949,0.871094,0.8538919412609928,-31.876339707830272,96.1588665242785,0.6439216732978821,-0.1887863427400589,-0.19952933490276337,0.7140816450119019
089897f7-a439-4954-b9ea-8c99d79603e5,586833ca-95b0-4750-b3b1-19762c7fe6c4,1761218969492612160,-1.497269,-0.22316,0.406265,-0.029785,-0.536133,0.884766,0.8608864602247474,-31.88459116608855,96.12666677964633,0.6441216468811035,-0.1889321357011795,-0.199488565325737,0.713874101638794
089897f7-a439-4954-b9ea-8c99d79603e5,586833ca-95b0-4750-b3b1-19762c7fe6c4,1761218969500629160,-1.741409,-0.22316,0.589371,-0.014648,-0.550293,0.88623,0.8650082075622212,-31.897445425910355,96.13863663355419,0.6440342664718628,-0.189008891582489,-0.19956552982330322,0.7139110565185547
089897f7-a439-4954-b9ea-8c99d79603e5,586833ca-95b0-4750-b3b1-19762c7fe6c4,1761218969508649160,-1.558304,-0.040054,0.4673,-0.024414,-0.540039,0.884766,0.8685059414662286,-31.908889146850978,96.0629203420215,0.6444941163063049,-0.18922653794288635,-0.1994924545288086,0.7134587168693542
089897f7-a439-4954-b9ea-8c99d79603e5,586833ca-95b0-4750-b3b1-19762c7fe6c4,1761218969516669160,-1.253128,0.143051,0.284195,-0.016602,-0.52832,0.884766,0.8690349782380122,-31.915017452234366,96.00773004913106,0.6448290348052979,-0.18936020135879517,-0.19943660497665405,0.7131361961364746
089897f7-a439-4954-b9ea-8c99d79603e5,586833ca-95b0-4750-b3b1-19762c7fe6c4,1761218969524689160,-1.375198,0.265121,-0.020981,-0.015137,-0.537598,0.892578,0.868522073230053,-31.909026515725934,95.99529422006543,0.6449148654937744,-0.1893451064825058,-0.1993815153837204,0.713077962398529
089897f7-a439-4954-b9ea-8c99d79603e5,586833ca-95b0-4750-b3b1-19762c7fe6c4,1761218969535408160,-1.375198,0.509262,0.101089,-0.01123,-0.537598,0.869629,0.8717540734947076,-31.911648390018268,95.96631410987001,0.6450967192649841,-0.1894303262233734,-0.19933180510997772,0.712904691696167
089897f7-a439-4954-b9ea-8c99d79603e5,586833ca-95b0-4750-b3b1-19762c7fe6c4,1761218969546127160,-1.132965,0.324249,-0.082016,-0.014648,-0.54834,0.878906,0.8749458338632291,-31.915492614025425,95.90891753244529,0.6454532742500305,-0.1895715445280075,-0.19924291968345642,0.7125691771507263
089897f7-a439-4954-b9ea-8c99d79603e5,586833ca-95b0-4750-b3b1-19762c7fe6c4,1761218969556846160,-1.192093,0.387192,-0.509262,-0.03125,-0.555664,0.880371,0.8770033347890204,-31.91716693926074,95.79922446688067,0.6461360454559326,-0.18978434801101685,-0.19906020164489746,0.711944580078125
089897f7-a439-4954-b9ea-8c99d79603e5,586833ca-95b0-4750-b3b1-19762c7fe6c4,1761218969567440160,-0.94986,0.69046,-0.814438,-0.01123,-0.521484,0.878418,0.8747939129483567,-31.9215690864946,95.62679584739624,0.6471958756446838,-0.1900946944952011,-0.1988143026828766,0.7109671831130981
089897f7-a439-4954-b9ea-8c99d79603e5,586833ca-95b0-4750-b3b1-19762c7fe6c4,1761218969578032160,-1.253128,0.631332,-0.997543,-0.01416,-0.531738,0.873047,0.8771872290118815,-31.925534603380036,95.52449302305587,0.6478282809257507,-0.19030925631523132,-0.19865566492080688,0.7103779315948486
089897f7-a439-4954-b9ea-8c99d79603e5,586833ca-95b0-4750-b3b1-19762c7fe6c4,1761218969588624160,-1.008987,0.570297,-1.119614,-0.010254,-0.537598,0.881348,0.8746267607470894,-31.930826116716933,95.45161525326478,0.6482672095298767,-0.19044950604438782,-0.1985819935798645,0.7099603414535522
089897f7-a439-4954-b9ea-8c99d79603e5,586833ca-95b0-4750-b3b1-19762c7fe6c4,1761218969599313160,-1.314163,0.875473,-1.729965,-0.020508,-0.532715,0.875,0.8796576147153379,-31.934237107095182,95.43180964363772,0.6483932733535767,-0.19053417444229126,-0.1985418200492859,0.7098338007926941
089897f7-a439-4954-b9ea-8c99d79603e5,586833ca-95b0-4750-b3b1-19762c7fe6c4,1761218969610004160,-1.558304,0.692368,-1.54686,-0.019043,-0.538086,0.870605,0.8789586579171539,-31.944208254310787,95.37619363126409,0.6487208604812622,-0.19068238139152527,-0.19851526618003845,0.7095019817352295
089897f7-a439-4954-b9ea-8c99d79603e5,586833ca-95b0-4750-b3b1-19762c7fe6c4,1761218969620695160,-1.680374,0.753403,-1.302719,-0.033691,-0.519043,0.863769,0.8819627180785363,-31.952417207794575,95.27870374014257,0.6493165493011475,-0.19091607630252838,-0.19838693737983704,0.7089298963546753
089897f7-a439-4954-b9ea-8c99d79603e5,586833ca-95b0-4750-b3b1-19762c7fe6c4,1761218969631336160,-1.741409,0.875473,-1.241684,-0.027832,-0.526855,0.868164,0.8985036623582727,-31.97428922066526,95.20835567790516,0.6497458815574646,-0.19126349687576294,-0.1983116865158081,0.7084638476371765
089897f7-a439-4954-b9ea-8c99d79603e5,586833ca-95b0-4750-b3b1-19762c7fe6c4,1761218969641980160,-1.802444,0.631332,-0.753403,-0.04248,-0.543945,0.868164,0.9111804075681661,-31.989311335320092,95.16319592247152,0.650023341178894,-0.19150479137897491,-0.19825761020183563,0.7081591486930847
089897f7-a439-4954-b9ea-8c99d79603e5,586833ca-95b0-4750-b3b1-19762c7fe6c4,1761218969652624160,-1.86348,0.448227,-0.448227,-0.029297,-0.535645,0.866699,0.9182257004303159,-32.00014510616942,95.07290732274092,0.6505762338638306,-0.19176563620567322,-0.19813384115695953,0.707615315914154
089897f7-a439-4954-b9ea-8c99d79603e5,586833ca-95b0-4750-b3b1-19762c7fe6c4,1761218969660646160,-2.109528,0.507355,0.284195,-0.020996,-0.532715,0.875,0.928264960075512,-32.0155064849134,94.99464025808044,0.6510525345802307,-0.19204971194267273,-0.19804097712039948,0.7071260213851929
089897f7-a439-4954-b9ea-8c99d79603e5,586833ca-95b0-4750-b3b1-19762c7fe6c4,1761218969668669160,-2.109528,0.507355,1.077652,-0.02002,-0.541016,0.871094,0.9413759942888681,-32.03198918617913,94.93759018591693,0.651401162147522,-0.19232237339019775,-0.19797290861606598,0.7067497968673706
089897f7-a439-4954-b9ea-8c99d79603e5,586833ca-95b0-4750-b3b1-19762c7fe6c4,1761218969676692160,-2.656937,0.997543,1.016617,-0.018066,-0.526367,0.85791,0.9565918940958403,-32.04742899494797,94.88456275563918,0.6517300605773926,-0.19259512424468994,-0.1978929489850998,0.706394612789154
089897f7-a439-4954-b9ea-8c99d79603e5,586833ca-95b0-4750-b3b1-19762c7fe6c4,1761218969684715160,-2.109528,0.812531,0.711441,-0.022949,-0.544434,0.875,0.973649539244682,-32.06859527655485,94.83251788709525,0.6520468592643738,-0.19290989637374878,-0.1978393942117691,0.7060312628746033
089897f7-a439-4954-b9ea-8c99d79603e5,586833ca-95b0-4750-b3b1-19762c7fe6c4,1761218969695378160,-2.414703,1.121521,0.4673,-0.009766,-0.560547,0.870117,0.9865086540675289,-32.08912638514355,94.84583685348265,0.6519545912742615,-0.1930823177099228,-0.19791573286056519,0.7060479521751404
089897f7-a439-4954-b9ea-8c99d79603e5,586833ca-95b0-4750-b3b1-19762c7fe6c4,1761218969706041160,-2.473831,1.119614,0.772476,-0.020996,-0.553223,0.870117,1.0034538938386488,-32.11110745971169,94.8328222853076,0.6520293354988098,-0.19333358108997345,-0.19793342053890228,0.7059051990509033
089897f7-a439-4954-b9ea-8c99d79603e5,586833ca-95b0-4750-b3b1-19762c7fe6c4,1761218969716704160,-2.473831,0.753403,0.406265,-0.026855,-0.532715,0.874512,1.0196505619201288,-32.12787645111819,94.7697646693383,0.6524191498756409,-0.19363713264465332,-0.19783851504325867,0.7054883241653442
089897f7-a439-4954-b9ea-8c99d79603e5,586833ca-95b0-4750-b3b1-19762c7fe6c4,1761218969724696160,-2.351761,0.936508,0.040054,-0.009766,-0.541992,0.864258,1.0337356362768855,-32.16519701992813,94.64343236451083,0.6531617641448975,-0.194153293967247,-0.1977752447128296,0.7046765685081482
089897f7-a439-4954-b9ea-8c99d79603e5,586833ca-95b0-4750-b3b1-19762c7fe6c4,1761218969732688160,-2.229691,1.119614,-0.509262,-0.011719,-0.541504,0.869141,1.0383424630057245,-32.18022989067921,94.58399986361016,0.6535112857818604,-0.19436940550804138,-0.1977410912513733,0.7043024301528931
089897f7-a439-4954-b9ea-8c99d79603e5,586833ca-95b0-4750-b3b1-19762c7fe6c4,1761218969740680160,-2.046585,0.631332,-0.875473,-0.015137,-0.543457,0.862305,1.0386861210495058,-32.19665031470298,94.50752820218437,0.6539556980133057,-0.19459661841392517,-0.19771072268486023,0.7038355469703674
089897f7-a439-4954-b9ea-8c99d79603e5,586833ca-95b0-4750-b3b1-19762c7fe6c4,1761218969748672160,-2.231598,0.324249,-1.119614,-0.011719,-0.541992,0.869141,1.0354857432407887,-32.21340843438107,94.40375329000788,0.6545606851577759,-0.1948511302471161,-0.1976560354232788,0.7032178640365601
089897f7-a439-4954-b9ea-8c99d79603e5,586833ca-95b0-4750-b3b1-19762c7fe6c4,1761218969759414160,-2.168655,0.570297,-1.607895,-0.037109,-0.543457,0.875488,1.0394748103817681,-32.23047765800381,94.3498744638247,0.6548709869384766,-0.19506552815437317,-0.19764681160449982,0.7028719782829285
089897f7-a439-4954-b9ea-8c99d79603e5,586833ca-95b0-4750-b3b1-19762c7fe6c4,1761218969770156160,-2.229691,0.570297,-1.66893,-0.01416,-0.542969,0.868652,1.0366877753133275,-32.2466963830241,94.29087587085205,0.6552021503448486,-0.19524237513542175,-0.19766220450401306,0.702509880065918
089897f7-a439-4954-b9ea-8c99d79603e5,586833ca-95b0-4750-b3b1-19762c7fe6c4,1761218969780898160,-2.534866,0.631332,-1.791,-0.030762,-0.533203,0.885742,1.0377484508743486,-32.261451718614715,94.22226494579385,0.6556009650230408,-0.19545114040374756,-0.19763004779815674,0.7020886540412903
089897f7-a439-4954-b9ea-8c99d79603e5,586833ca-95b0-4750-b3b1-19762c7fe6c4,1761218969791483160,-2.288818,0.324249,-1.66893,-0.030762,-0.532715,0.863281,1.039693865517673,-32.27678015551381,94.2007837064142,0.6557114720344543,-0.19558732211589813,-0.1976766288280487,0.7019343972206116
089897f7-a439-4954-b9ea-8c99d79603e5,586833ca-95b0-4750-b3b1-19762c7fe6c4,1761218969802070160,-2.534866,-0.040054,-1.363754,-0.022949,-0.55957,0.880371,1.038044378663477,-32.29543092857221,94.16157015066153,0.6559190154075623,-0.19575101137161255,-0.19773389399051666,0.7016786932945251
089897f7-a439-4954-b9ea-8c99d79603e5,586833ca-95b0-4750-b3b1-19762c7fe6c4,1761218969812657160,-2.597809,-0.038147,-1.119614,-0.03418,-0.555664,0.879883,1.0410172404000193,-32.31386066079325,94.09305990793715,0.6563140749931335,-0.1959923505783081,-0.19771313667297363,0.7012476325035095
089897f7-a439-4954-b9ea-8c99d79603e5,586833ca-95b0-4750-b3b1-19762c7fe6c4,1761218969823331160,-2.471924,-0.164032,-0.936508,-0.025879,-0.540039,0.871582,1.0311710752111516,-32.35351115398559,93.92763977682581,0.6572451591491699,-0.1964435577392578,-0.19772997498512268,0.7002438306808472
089897f7-a439-4954-b9ea-8c99d79603e5,586833ca-95b0-4750-b3b1-19762c7fe6c4,1761218969834004160,-2.290726,0.204086,-0.936508,-0.019043,-0.54541,0.869141,1.0318066898554654,-32.37213896474716,93.8523404343944,0.6576763391494751,-0.1966836303472519,-0.1977115124464035,0.6997767090797424
089897f7-a439-4954-b9ea-8c99d79603e5,586833ca-95b0-4750-b3b1-19762c7fe6c4,1761218969844677160,-2.473831,0.204086,-0.143051,-0.039551,-0.541504,0.873047,1.0426404273675147,-32.392327440337304,93.78109697430116,0.658097505569458,-0.19698792695999146,-0.19765079021453857,0.699312150478363
089897f7-a439-4954-b9ea-8c99d79603e5,586833ca-95b0-4750-b3b1-19762c7fe6c4,1761218969855347160,-3.023148,0.387192,0.22316,-0.025391,-0.554199,0.873535,1.049694988623478,-32.4170799275196,93.70175033918493,0.6585538983345032,-0.197309210896492,-0.19762550294399261,0.6987988948822021
089897f7-a439-4954-b9ea-8c99d79603e5,586833ca-95b0-4750-b3b1-19762c7fe6c4,1761218969866017160,-3.267288,-0.101089,0.284195,-0.037598,-0.543945,0.881348,1.0652634901703455,-32.43870198131352,93.74221754748886,0.6582991480827332,-0.19745789468288422,-0.19773828983306885,0.6989649534225464
089897f7-a439-4954-b9ea-8c99d79603e5,586833ca-95b0-4750-b3b1-19762c7fe6c4,1761218969876687160,-3.08609,-0.286102,0.650406,-0.012207,-0.554199,0.869141,1.0678712290873318,-32.46402004687276,93.75914865665192,0.658159613609314,-0.19758915901184082,-0.1979077160358429,0.6990113258361816
089897f7-a439-4954-b9ea-8c99d79603e5,586833ca-95b0-4750-b3b1-19762c7fe6c4,1761218969887338160,-3.450394,-0.22316,0.772476,-0.014648,-0.549316,0.886719,1.073225639791126,-32.51796340032986,93.71403748836198,0.6583570241928101,-0.19800785183906555,-0.19812974333763123,0.6986439228057861
089897f7-a439-4954-b9ea-8c99d79603e5,586833ca-95b0-4750-b3b1-19762c7fe6c4,1761218969897987160,-3.389359,-0.101089,0.711441,-0.024902,-0.554199,0.870605,1.078658455436326,-32.5479693680349,93.71467438056229,0.6583141088485718,-0.19821126759052277,-0.19828350841999054,0.6985830068588257
089897f7-a439-4954-b9ea-8c99d79603e5,586833ca-95b0-4750-b3b1-19762c7fe6c4,1761218969908636160,-2.962112,-0.406265,0.589371,-0.018066,-0.547363,0.879883,1.0788471209772743,-32.56857227181782,93.66507290147965,0.6585834622383118,-0.19841592013835907,-0.19832280278205872,0.6982598900794983
089897f7-a439-4954-b9ea-8c99d79603e5,586833ca-95b0-4750-b3b1-19762c7fe6c4,1761218969916642160,-2.414703,0.144958,0.101089,-0.006348,-0.553711,0.870605,1.079738734156226,-32.58810381591733,93.60807859672711,0.6589006185531616,-0.1986316293478012,-0.19833853840827942,0.6978947520256042
089897f7-a439-4954-b9ea-8c99d79603e5,586833ca-95b0-4750-b3b1-19762c7fe6c4,1761218969924649160,-2.168655,0.326157,0.040054,-0.013672,-0.554688,0.865234,1.0817867054309585,-32.60757392461005,93.54854402770009,0.6592351198196411,-0.19885846972465515,-0.19834266602993011,0.6975129842758179
089897f7-a439-4954-b9ea-8c99d79603e5,586833ca-95b0-4750-b3b1-19762c7fe6c4,1761218969932656160,-2.046585,0.753403,-0.204086,-0.012207,-0.547852,0.870117,1.0838721631339467,-32.62330507648236,93.50070604877062,0.6595043540000916,-0.19904394447803497,-0.19834384322166443,0.6972051858901978
089897f7-a439-4954-b9ea-8c99d79603e5,586833ca-95b0-4750-b3b1-19762c7fe6c4,1761218969940663160,-1.926422,0.812531,-0.448227,-0.000977,-0.562988,0.875488,1.087481530837751,-32.64016307039932,93.45939596348921,0.6597345471382141,-0.19923388957977295,-0.19835436344146729,0.6969300508499146
089897f7-a439-4954-b9ea-8c99d79603e5,586833ca-95b0-4750-b3b1-19762c7fe6c4,1761218969951334160,-1.802444,0.875473,-0.875473,-0.012207,-0.553711,0.865723,1.0926811934745921,-32.65809400156048,93.42297717264668,0.6599358916282654,-0.19943119585514069,-0.19837068021297455,0.6966782808303833
089897f7-a439-4954-b9ea-8c99d79603e5,586833ca-95b0-4750-b3b1-19762c7fe6c4,1761218969962005160,-2.229691,0.936508,-0.936508,-0.015137,-0.555176,0.86084,1.093816383878535,-32.67248049512589,93.39839390488618,0.6600639224052429,-0.19956301152706146,-0.19840925931930542,0.6965082883834839
089897f7-a439-4954-b9ea-8c99d79603e5,586833ca-95b0-4750-b3b1-19762c7fe6c4,1761218969972676160,-1.98555,1.119614,-1.302719,-0.019043,-0.555664,0.865723,1.10143207229005,-32.690744652283705,93.39974948513722,0.6600391864776611,-0.19971154630184174,-0.19847935438156128,0.6964691281318665
089897f7-a439-4954-b9ea-8c99d79603e5,586833ca-95b0-4750-b3b1-19762c7fe6c4,1761218969980684160,-1.983643,0.812531,-1.180649,-0.020996,-0.558105,0.867676,1.1078745117083737,-32.71639256892769,93.25383600669736,0.6608948707580566,-0.200150266289711,-0.19834426045417786,0.695569634437561
089897f7-a439-4954-b9ea-8c99d79603e5,586833ca-95b0-4750-b3b1-19762c7fe6c4,1761218969988692160,-1.86348,1.119614,-1.241684,-0.028809,-0.553223,0.861328,1.112956128405476,-32.73209721064526,93.20563241123423,0.6611706018447876,-0.20035457611083984,-0.19832652807235718,0.6952537894248962
089897f7-a439-4954-b9ea-8c99d79603e5,586833ca-95b0-4750-b3b1-19762c7fe6c4,1761218969996700160,-1.86348,0.936508,-1.424789,-0.029297,-0.541992,0.873535,1.1196181433735495,-32.746881547587456,93.12005993825248,0.6616770029067993,-0.200627863407135,-0.19822850823402405,0.694720983505249
089897f7-a439-4954-b9ea-8c99d79603e5,586833ca-95b0-4750-b3b1-19762c7fe6c4,1761218970004708160,-2.109528,1.121521,-1.241684,-0.020996,-0.554688,0.856445,1.125179311161857,-32.765128885634994,93.03863906165505,0.6621502637863159,-0.2009071707725525,-0.1981649249792099,0.6942072510719299
089897f7-a439-4954-b9ea-8c99d79603e5,586833ca-95b0-4750-b3b1-19762c7fe6c4,1761218970015399160,-1.926422,0.995636,-1.302719,-0.020996,-0.558594,0.864746,1.1291807995272438,-32.780994408757984,92.96939049006028,0.6625506281852722,-0.20114228129386902,-0.19811692833900452,0.6937707662582397
089897f7-a439-4954-b9ea-8c99d79603e5,586833ca-95b0-4750-b3b1-19762c7fe6c4,1761218970026090160,-1.802444,1.363754,-1.302719,-0.041504,-0.541016,0.874023,1.1413557385827426,-32.79382799586241,92.91579835570941,0.6628750562667847,-0.20138238370418549,-0.1980305016040802,0.6934157609939575
089897f7-a439-4954-b9ea-8c99d79603e5,586833ca-95b0-4750-b3b1-19762c7fe6c4,1761218970036781160,-1.926422,1.300812,-1.058578,-0.024414,-0.54834,0.856934,1.1535635912907656,-32.808629736041496,92.88352857295588,0.6630671620368958,-0.20159712433815002,-0.1979931890964508,0.69318026304245
089897f7-a439-4954-b9ea-8c99d79603e5,586833ca-95b0-4750-b3b1-19762c7fe6c4,1761218970047392160,-2.229691,0.875473,-0.875473,-0.022949,-0.547852,0.869629,1.162787324141672,-32.825066443132634,92.81711216374275,0.6634578108787537,-0.2018621563911438,-0.19792284071445465,0.6927493810653687
089897f7-a439-4954-b9ea-8c99d79603e5,586833ca-95b0-4750-b3b1-19762c7fe6c4,1761218970058004160,-2.229691,0.875473,-0.753403,-0.035156,-0.556152,0.869629,1.1751935770604451,-32.84381473756576,92.78362285177101,0.6636509299278259,-0.2021028697490692,-0.19790594279766083,0.6924989819526672
089897f7-a439-4954-b9ea-8c99d79603e5,586833ca-95b0-4750-b3b1-19762c7fe6c4,1761218970068616160,-2.288818,0.995636,-0.448227,-0.042969,-0.557617,0.875,1.1884299642947573,-32.86269362419717,92.80034398912976,0.6635417938232422,-0.20226262509822845,-0.19797354936599731,0.6925375461578369
089897f7-a439-4954-b9ea-8c99d79603e5,586833ca-95b0-4750-b3b1-19762c7fe6c4,1761218970079310160,-2.168655,0.814438,-0.387192,-0.036133,-0.550293,0.859863,1.2155937917690838,-32.89747493170906,92.74435912756546,0.6638699173927307,-0.20272359251976013,-0.19792866706848145,0.692101001739502
089897f7-a439-4954-b9ea-8c99d79603e5,586833ca-95b0-4750-b3b1-19762c7fe6c4,1761218970090007160,-2.351761,1.241684,-0.631332,-0.024902,-0.55957,0.868164,1.2252074705242786,-32.9158031304633,92.69398546430814,0.6641606092453003,-0.20297415554523468,-0.1978951245546341,0.6917581558227539
089897f7-a439-4954-b9ea-8c99d79603e5,586833ca-95b0-4750-b3b1-19762c7fe6c4,1761218970100704160,-2.229691,1.241684,-0.265121,-0.021973,-0.542969,0.87207,1.2386150074320963,-32.93130024043778,92.6549713982214,0.6643937826156616,-0.2032116949558258,-0.19784235954284668,0.691479504108429
089897f7-a439-4954-b9ea-8c99d79603e5,586833ca-95b0-4750-b3b1-19762c7fe6c4,1761218970108754160,-1.98555,0.875473,-0.265121,-0.021973,-0.561523,0.858887,1.249723779921837,-32.952192306645884,92.62846486998322,0.664538562297821,-0.20344482362270355,-0.19785773754119873,0.6912673711776733
089897f7-a439-4954-b9ea-8c99d79603e5,586833ca-95b0-4750-b3b1-19762c7fe6c4,1761218970116804160,-2.168655,1.058578,-0.448227,-0.020996,-0.553711,0.875977,1.2580492543103408,-32.96615279557219,92.58214475657945,0.6648093461990356,-0.2036554217338562,-0.19781188666820526,0.6909580826759338
089897f7-a439-4954-b9ea-8c99d79603e5,586833ca-95b0-4750-b3b1-19762c7fe6c4,1761218970124854160,-1.926422,0.812531,-0.631332,-0.023438,-0.558105,0.868652,1.2670653418857774,-32.9807332938745,92.55977981980683,0.6649357676506042,-0.20383241772651672,-0.19780826568603516,0.6907852292060852
089897f7-a439-4954-b9ea-8c99d79603e5,586833ca-95b0-4750-b3b1-19762c7fe6c4,1761218970132904160,-1.800537,0.507355,-0.692368,-0.027344,-0.549805,0.87207,1.2746546131651417,-32.99121872923581,92.57320106343724,0.6648507118225098,-0.20391541719436646,-0.19785171747207642,0.6908301711082458
089897f7-a439-4954-b9ea-8c99d79603e5,586833ca-95b0-4750-b3b1-19762c7fe6c4,1761218970143737160,-1.558304,0.692368,-0.875473,-0.016602,-0.560547,0.88623,1.276515549569226,-33.002489592571465,92.53529536744247,0.6650638580322266,-0.20405703783035278,-0.1978418081998825,0.6905859708786011
089897f7-a439-4954-b9ea-8c99d79603e5,586833ca-95b0-4750-b3b1-19762c7fe6c4,1761218970154570160,-1.314163,0.204086,-0.570297,-0.030273,-0.560547,0.880371,1.2797891622792912,-33.011689584720216,92.52033709746856,0.6651445031166077,-0.20415562391281128,-0.19785195589065552,0.6904762387275696
089897f7-a439-4954-b9ea-8c99d79603e5,586833ca-95b0-4750-b3b1-19762c7fe6c4,1761218970165403160,-0.886917,-0.040054,-0.509262,-0.030762,-0.559082,0.879394,1.2849543545740616,-33.01345077422222,92.55431166822363,0.6649457812309265,-0.20413824915885925,-0.1978931874036789,0.6906608939170837
089897f7-a439-4954-b9ea-8c99d79603e5,586833ca-95b0-4750-b3b1-19762c7fe6c4,1761218970175866160,-0.94986,-0.038147,-0.448227,-0.026855,-0.558105,0.870605,1.2948986600243875,-33.005119906177484,92.49385239711519,0.6653409600257874,-0.20425449311733246,-0.19767720997333527,0.6903077363967896
089897f7-a439-4954-b9ea-8c99d79603e5,586833ca-95b0-4750-b3b1-19762c7fe6c4,1761218970186332160,-0.825882,-0.040054,-0.509262,-0.032715,-0.550293,0.871094,1.301257601980516,-33.00009871773246,92.44864238660976,0.6656324863433838,-0.2043417990207672,-0.19752924144268036,0.6900431513786316
089897f7-a439-4954-b9ea-8c99d79603e5,586833ca-95b0-4750-b3b1-19762c7fe6c4,1761218970196798160,-0.703812,-0.101089,-0.753403,-0.03125,-0.541504,0.856934,1.3039613164216466,-33.002302028579905,92.39730178599892,0.6659426093101501,-0.20445924997329712,-0.19743530452251434,0.689736008644104
089897f7-a439-4954-b9ea-8c99d79603e5,586833ca-95b0-4750-b3b1-19762c7fe6c4,1761218970204861160,-1.070023,0.265121,-0.143051,-0.027344,-0.561035,0.868164,1.3109354475178636,-33.00157649732435,92.34626805312843,0.6662629246711731,-0.20458494126796722,-0.1972992867231369,0.6894282102584839
089897f7-a439-4954-b9ea-8c99d79603e5,586833ca-95b0-4750-b3b1-19762c7fe6c4,1761218970212927160,-1.070023,0.265121,-0.509262,-0.023437,-0.544922,0.861816,1.3133198867307299,-32.99600578355992,92.28250754047562,0.6666597127914429,-0.20467683672904968,-0.19713783264160156,0.6890634894371033
089897f7-a439-4954-b9ea-8c99d79603e5,586833ca-95b0-4750-b3b1-19762c7fe6c4,1761218970220993160,-1.314163,0.387192,-0.509262,-0.036621,-0.568359,0.870605,1.3197142559537784,-32.994665087391475,92.2619235718697,0.6667966842651367,-0.2047429382801056,-0.19705574214458466,0.6889348030090332
089897f7-a439-4954-b9ea-8c99d79603e5,586833ca-95b0-4750-b3b1-19762c7fe6c4,1761218970229059160,-0.886917,0.448227,-0.387192,-0.029785,-0.560547,0.877441,1.3242470879282293,-33.00123511482,92.29823616795089,0.6665753126144409,-0.20474570989608765,-0.19713401794433594,0.6891257166862488
089897f7-a439-4954-b9ea-8c99d79603e5,586833ca-95b0-4750-b3b1-19762c7fe6c4,1761218970239688160,-0.766754,0.324249,-0.143051,-0.041016,-0.557129,0.871094,1.3316472249018918,-32.99944667758768,92.30945517155628,0.6665235161781311,-0.2047605812549591,-0.1971001923084259,0.6891810894012451
089897f7-a439-4954-b9ea-8c99d79603e5,586833ca-95b0-4750-b3b1-19762c7fe6c4,1761218970250317160,-0.94986,0.144958,-0.265121,-0.038086,-0.560059,0.862305,1.33966982862898,-32.9966966681911,92.27564907031204,0.666745126247406,-0.20485106110572815,-0.1969764530658722,0.6889752149581909
089897f7-a439-4954-b9ea-8c99d79603e5,586833ca-95b0-4750-b3b1-19762c7fe6c4,1761218970260946160,-0.886917,0.204086,-0.020981,-0.023437,-0.555176,0.873535,1.3433863588760633,-32.99295695973071,92.24854696226919,0.6669206023216248,-0.20489837229251862,-0.19688373804092407,0.6888177990913391
089897f7-a439-4954-b9ea-8c99d79603e5,586833ca-95b0-4750-b3b1-19762c7fe6c4,1761218970271592160,-0.886917,-0.040054,0.040054,-0.029297,-0.560059,0.865723,1.349245303820824,-32.9888935309479,92.15010216200656,0.6675288677215576,-0.20507913827896118,-0.19664894044399261,0.6882416009902954
089897f7-a439-4954-b9ea-8c99d79603e5,586833ca-95b0-4750-b3b1-19762c7fe6c4,1761218970282238160,-0.644684,-0.221252,-0.143051,-0.042969,-0.557617,0.887207,1.3575580449287734,-32.98519204563944,92.10937200451667,0.6677938103675842,-0.20517751574516296,-0.19650521874427795,0.6879962682723999
089897f7-a439-4954-b9ea-8c99d79603e5,586833ca-95b0-4750-b3b1-19762c7fe6c4,1761218970292884160,-0.703812,0.020981,0.162125,-0.034668,-0.55957,0.867187,1.3656444841816593,-32.98175071863349,92.07594745036222,0.6680139899253845,-0.2052634209394455,-0.19637742638587952,0.6877934336662292
089897f7-a439-4954-b9ea-8c99d79603e5,586833ca-95b0-4750-b3b1-19762c7fe6c4,1761218970300839160,-0.276566,-0.528336,0.22316,-0.031738,-0.567383,0.880859,1.3677369004341964,-32.97946591377142,92.04701930510284,0.6681949496269226,-0.2053123265504837,-0.19629959762096405,0.6876252293586731
089897f7-a439-4954-b9ea-8c99d79603e5,586833ca-95b0-4750-b3b1-19762c7fe6c4,1761218970308796160,0.026703,-0.343323,0.040054,-0.033203,-0.554688,0.88623,1.370679708828386,-32.97197096751388,92.01201813765603,0.6684223413467407,-0.20534653961658478,-0.19617444276809692,0.687429666519165
089897f7-a439-4954-b9ea-8c99d79603e5,586833ca-95b0-4750-b3b1-19762c7fe6c4,1761218970316753160,0.333786,-0.34523,-0.387192,-0.024902,-0.55127,0.879883,1.3728805263419672,-32.9624602597733,91.96675373543665,0.6687132716178894,-0.20538212358951569,-0.19602304697036743,0.6871792078018188
089897f7-a439-4954-b9ea-8c99d79603e5,586833ca-95b0-4750-b3b1-19762c7fe6c4,1761218970324710160,0.089645,-0.528336,-0.204086,-0.02002,-0.544922,0.867676,1.3745770218347406,-32.954396033086994,91.9914463882065,0.6685813665390015,-0.20530332624912262,-0.19600869715213776,0.6873352527618408
089897f7-a439-4954-b9ea-8c99d79603e5,586833ca-95b0-4750-b3b1-19762c7fe6c4,1761218970335377160,0.394821,-0.406265,-0.448227,-0.021973,-0.541504,0.871094,1.3720598371734654,-32.94596488916288,91.985759923307,0.6686250567436218,-0.2052491307258606,-0.19596228003501892,0.6873221397399902
089897f7-a439-4954-b9ea-8c99d79603e5,586833ca-95b0-4750-b3b1-19762c7fe6c4,1761218970346044160,0.272751,-0.772476,-0.448227,-0.022461,-0.552734,0.876953,1.3740573920627401,-32.9366862566121,91.92942881829197,0.6689815521240234,-0.2053036391735077,-0.19579368829727173,0.687006950378418
089897f7-a439-4954-b9ea-8c99d79603e5,586833ca-95b0-4750-b3b1-19762c7fe6c4,1761218970356711160,0.333786,-0.955582,-0.753403,-0.016113,-0.546387,0.865723,1.3703583114780022,-32.92869396242116,91.87340272678792,0.6693242192268372,-0.20533083379268646,-0.19566667079925537,0.6867011785507202
089897f7-a439-4954-b9ea-8c99d79603e5,586833ca-95b0-4750-b3b1-19762c7fe6c4,1761218970367392160,0.333786,-0.772476,-0.692368,-0.024902,-0.536621,0.868652,1.3730887136007983,-32.911414443481554,91.79935945137278,0.6698009371757507,-0.20537330210208893,-0.19541379809379578,0.6862955689430237
089897f7-a439-4954-b9ea-8c99d79603e5,586833ca-95b0-4750-b3b1-19762c7fe6c4,1761218970378076160,0.211716,-1.077652,-0.692368,-0.029297,-0.542969,0.859375,1.3681495880179884,-32.90446756835685,91.7628180976261,0.6700227856636047,-0.20536571741104126,-0.1953352987766266,0.6861035823822021
089897f7-a439-4954-b9ea-8c99d79603e5,586833ca-95b0-4750-b3b1-19762c7fe6c4,1761218970388760160,-0.09346,-0.894547,-0.936508,-0.026855,-0.536621,0.852539,1.3622681609578577,-32.89790999372033,91.7226357281354,0.6702641248703003,-0.20536090433597565,-0.19525815546512604,0.6858912706375122
089897f7-a439-4954-b9ea-8c99d79603e5,586833ca-95b0-4750-b3b1-19762c7fe6c4,1761218970396817160,-0.337601,-0.772476,-1.058578,-0.019043,-0.532715,0.859375,1.347168426861614,-32.894184475839396,91.70254321431867,0.6703647971153259,-0.20528313517570496,-0.1952880322933197,0.6858076453208923
089897f7-a439-4954-b9ea-8c99d79603e5,586833ca-95b0-4750-b3b1-19762c7fe6c4,1761218970404875160,-0.888824,-0.835419,-0.997543,-0.029785,-0.523926,0.859863,1.3422466583581663,-32.88885889821307,91.66873458884817,0.670567512512207,-0.2052803635597229,-0.19522418081760406,0.6856284141540527
089897f7-a439-4954-b9ea-8c99d79603e5,586833ca-95b0-4750-b3b1-19762c7fe6c4,1761218970412933160,-1.560211,-0.652313,-0.570297,-0.022949,-0.544922,0.853027,1.3336196707480314,-32.897295671922805,91.59238764093637,0.6709955334663391,-0.20540785789489746,-0.19518867135047913,0.6851814389228821
089897f7-a439-4954-b9ea-8c99d79603e5,586833ca-95b0-4750-b3b1-19762c7fe6c4,1761218970428959160,-2.046585,-0.528336,-0.448227,-0.033691,-0.543457,0.852539,1.3330670504389963,-32.91897333884405,91.59350278429527,0.6709520816802979,-0.20552869141101837,-0.1953243911266327,0.685149073600769
089897f7-a439-4954-b9ea-8c99d79603e5,586833ca-95b0-4750-b3b1-19762c7fe6c4,1761218970436930160,-2.473831,-0.772476,-0.509262,-0.020508,-0.537109,0.865723,1.3267833216151075,-32.931853196085335,91.53402936430557,0.6712755560874939,-0.2056674063205719,-0.19533199071884155,0.6847883462905884
089897f7-a439-4954-b9ea-8c99d79603e5,586833ca-95b0-4750-b3b1-19762c7fe6c4,1761218970444901160,-2.840042,-0.406265,-0.082016,-0.031738,-0.546875,0.864258,1.3275092013865377,-32.951847209908216,91.48972460240653,0.6715083718299866,-0.2058636099100113,-0.1953684389591217,0.6844906210899353
089897f7-a439-4954-b9ea-8c99d79603e5,586833ca-95b0-4750-b3b1-19762c7fe6c4,1761218970460819160,-3.87764,-0.406265,-0.326157,-0.030273,-0.548828,0.858887,1.3263062998823467,-32.97743708289996,91.4614264356108,0.6716328859329224,-0.20605359971523285,-0.19547848403453827,0.6842798590660095
089897f7-a439-4954-b9ea-8c99d79603e5,586833ca-95b0-4750-b3b1-19762c7fe6c4,1761218970468765160,-3.816605,-0.650406,-0.143051,-0.016113,-0.536621,0.867187,1.3199061768170834,-33.00207638053432,91.42657810918396,0.6717891097068787,-0.20621827244758606,-0.19560140371322632,0.6840417385101318
089897f7-a439-4954-b9ea-8c99d79603e5,586833ca-95b0-4750-b3b1-19762c7fe6c4,1761218970476711160,-4.060745,-0.894547,0.101089,-0.02832,-0.54834,0.861328,1.3180366615532821,-33.03345671016621,91.39372192452457,0.6719298362731934,-0.20644591748714447,-0.19574174284934998,0.6837946772575378
089897f7-a439-4954-b9ea-8c99d79603e5,586833ca-95b0-4750-b3b1-19762c7fe6c4,1761218970484657160,-4.365921,-1.016617,0.101089,-0.040039,-0.549316,0.867676,1.319145774974627,-33.06667239845966,91.363710886573,0.6720554828643799,-0.2066972702741623,-0.19588063657283783,0.6835553646087646
089897f7-a439-4954-b9ea-8c99d79603e5,586833ca-95b0-4750-b3b1-19762c7fe6c4,1761218970495400160,-4.304886,-1.138687,-0.082016,-0.033203,-0.547363,0.870605,1.3145744917140727,-33.09908367177967,91.3685313895245,0.6719648838043213,-0.20685049891471863,-0.1961107701063156,0.6835321187973022
089897f7-a439-4954-b9ea-8c99d79603e5,586833ca-95b0-4750-b3b1-19762c7fe6c4,1761218970506143160,-4.304886,-1.565933,-0.082016,-0.019531,-0.53418,0.863769,1.3082851182272999,-33.12650154864492,91.34736171142214,0.6720346212387085,-0.20700891315937042,-0.1962740421295166,0.6833686828613281
089897f7-a439-4954-b9ea-8c99d79603e5,586833ca-95b0-4750-b3b1-19762c7fe6c4,1761218970516886160,-4.245758,-1.44577,0.162125,-0.023926,-0.550293,0.867676,1.3016493635651016,-33.15645840833284,91.28418773060528,0.6723498106002808,-0.2072521150112152,-0.19637855887413025,0.682954728603363
089897f7-a439-4954-b9ea-8c99d79603e5,586833ca-95b0-4750-b3b1-19762c7fe6c4,1761218970524840160,-3.879547,-1.140594,-0.387192,-0.021973,-0.554688,0.876953,1.2847973231833425,-33.20922753508106,91.29896415350342,0.6721444725990295,-0.2074337750673294,-0.19682073593139648,0.6829743981361389
089897f7-a439-4954-b9ea-8c99d79603e5,586833ca-95b0-4750-b3b1-19762c7fe6c4,1761218970532795160,-3.694534,-1.260757,0.040054,-0.012695,-0.537109,0.881836,1.2776780913416093,-33.229465514484325,91.26682072740326,0.6722898483276367,-0.20756448805332184,-0.19692568480968475,0.6827613115310669
089897f7-a439-4954-b9ea-8c99d79603e5,586833ca-95b0-4750-b3b1-19762c7fe6c4,1761218970540750160,-3.757477,-1.140594,-0.143051,-0.024414,-0.554688,0.867187,1.2698490897551304,-33.256230848163014,91.21785190851669,0.6725231409072876,-0.20775803923606873,-0.19704335927963257,0.6824386119842529
089897f7-a439-4954-b9ea-8c99d79603e5,586833ca-95b0-4750-b3b1-19762c7fe6c4,1761218970548705160,-3.206253,-0.894547,0.040054,-0.015137,-0.54248,0.865723,1.2668905919537776,-33.28067950230898,91.16326937099407,0.6728019118309021,-0.20797686278820038,-0.1971082240343094,0.6820783019065857
089897f7-a439-4954-b9ea-8c99d79603e5,586833ca-95b0-4750-b3b1-19762c7fe6c4,1761218970559364160,-3.389359,-0.406265,0.284195,-0.03125,-0.541992,0.866211,1.2686270726014968,-33.30386995380202,91.13863262286344,0.6729124784469604,-0.20816482603549957,-0.1971922069787979,0.6818876266479492
089897f7-a439-4954-b9ea-8c99d79603e5,586833ca-95b0-4750-b3b1-19762c7fe6c4,1761218970570023160,-3.696442,-0.164032,-0.204086,-0.024414,-0.548828,0.867187,1.2683352135214356,-33.3293814596796,91.11284886759093,0.6730223894119263,-0.20835630595684052,-0.19729983806610107,0.681689441204071
089897f7-a439-4954-b9ea-8c99d79603e5,586833ca-95b0-4750-b3b1-19762c7fe6c4,1761218970580682160,-3.696442,-0.469208,0.22316,-0.027832,-0.555664,0.869629,1.264708405914143,-33.35671439971621,91.08634868524815,0.6731276512145996,-0.20853984355926514,-0.19743657112121582,0.6814897656440735
089897f7-a439-4954-b9ea-8c99d79603e5,586833ca-95b0-4750-b3b1-19762c7fe6c4,1761218970591345160,-3.450394,-0.589371,-0.082016,-0.030762,-0.558594,0.866699,1.2608374126657604,-33.38447609009504,91.09620500600049,0.6730154752731323,-0.20866182446479797,-0.1976434290409088,0.681503176689148
089897f7-a439-4954-b9ea-8c99d79603e5,586833ca-95b0-4750-b3b1-19762c7fe6c4,1761218970602008160,-3.450394,-1.016617,0.101089,-0.024902,-0.564941,0.874512,1.2596887774630823,-33.41050202232946,91.16816419411734,0.6725414395332336,-0.2086825668811798,-0.1979370415210724,0.681879460811615
089897f7-a439-4954-b9ea-8c99d79603e5,586833ca-95b0-4750-b3b1-19762c7fe6c4,1761218970612671160,-3.08609,-0.835419,-0.204086,-0.032715,-0.565918,0.859863,1.2567346711504783,-33.43750556023563,91.16563409756694,0.6725057363510132,-0.20882678031921387,-0.19811148941516876,0.6818198561668396
089897f7-a439-4954-b9ea-8c99d79603e5,586833ca-95b0-4750-b3b1-19762c7fe6c4,1761218970623341160,-2.962112,-0.711441,-0.204086,-0.02002,-0.560547,0.869629,1.2427483022266623,-33.47753991938454,91.12108416853025,0.6726787686347961,-0.20905408263206482,-0.19835203886032104,0.6815094351768494
089897f7-a439-4954-b9ea-8c99d79603e5,586833ca-95b0-4750-b3b1-19762c7fe6c4,1761218970634012160,-2.597809,-0.343323,-0.326157,-0.015625,-0.567383,0.884766,1.2380047414171467,-33.49252140423012,91.07259616043535,0.6729334592819214,-0.20919719338417053,-0.19838105142116547,0.6812055706977844
089897f7-a439-4954-b9ea-8c99d79603e5,586833ca-95b0-4750-b3b1-19762c7fe6c4,1761218970644683160,-2.351761,-0.34523,-0.570297,-0.021973,-0.564941,0.874512,1.2350371148391794,-33.5060999058296,91.02713685591644,0.6731754541397095,-0.2093374878168106,-0.1983966827392578,0.6809187531471252
089897f7-a439-4954-b9ea-8c99d79603e5,586833ca-95b0-4750-b3b1-19762c7fe6c4,1761218970652681160,-1.802444,-0.284195,-0.692368,-0.023438,-0.581543,0.870117,1.2341926777041756,-33.52187720277195,90.98789609267041,0.6733803153038025,-0.2094925045967102,-0.19842426478862762,0.6806604266166687
089897f7-a439-4954-b9ea-8c99d79603e5,586833ca-95b0-4750-b3b1-19762c7fe6c4,1761218970660679160,-1.621246,-0.102997,-0.875473,-0.022461,-0.545898,0.868164,1.2307811100025967,-33.528677490729706,90.95844962506001,0.6735377311706543,-0.20956295728683472,-0.1984311193227768,0.6804808974266052
089897f7-a439-4954-b9ea-8c99d79603e5,586833ca-95b0-4750-b3b1-19762c7fe6c4,1761218970668677160,-1.132965,-0.221252,-0.692368,-0.017578,-0.569336,0.871094,1.2287407526774923,-33.534019386979665,90.94796278812751,0.6735873818397522,-0.20960019528865814,-0.19845585525035858,0.6804130673408508
089897f7-a439-4954-b9ea-8c99d79603e5,586833ca-95b0-4750-b3b1-19762c7fe6c4,1761218970684668160,-1.314163,-0.34523,-1.241684,-0.012207,-0.564453,0.868652,1.2160285505339734,-33.54443966667113,90.90129535570826,0.673824667930603,-0.2096664309501648,-0.19850747287273407,0.6801425814628601
089897f7-a439-4954-b9ea-8c99d79603e5,586833ca-95b0-4750-b3b1-19762c7fe6c4,1761218970692661160,-0.94986,-0.652313,-1.302719,-0.01416,-0.569336,0.870605,1.204696765894117,-33.547712937557996,90.92367730587243,0.6736665964126587,-0.20957951247692108,-0.19863459467887878,0.6802887916564941
089897f7-a439-4954-b9ea-8c99d79603e5,586833ca-95b0-4750-b3b1-19762c7fe6c4,1761218970700654160,-0.888824,-0.835419,-1.119614,-0.022949,-0.578613,0.872559,1.1937952356111154,-33.55196377533135,90.88513111194695,0.673869252204895,-0.20960645377635956,-0.19865357875823975,0.6800742149353027
089897f7-a439-4954-b9ea-8c99d79603e5,586833ca-95b0-4750-b3b1-19762c7fe6c4,1761218970708647160,-1.07193,-0.957489,-1.180649,-0.019043,-0.570312,0.866699,1.1807784086447186,-33.55701424908947,90.83196877814072,0.6741535067558289,-0.2096509039402008,-0.19866304099559784,0.6797759532928467
089897f7-a439-4954-b9ea-8c99d79603e5,586833ca-95b0-4750-b3b1-19762c7fe6c4,1761218970719329160,-0.947952,-0.711441,-1.54686,-0.01709,-0.560547,0.864258,1.165575638441059,-33.56122954570576,90.76754623377545,0.6745020151138306,-0.20969706773757935,-0.1986597776412964,0.6794168949127197
089897f7-a439-4954-b9ea-8c99d79603e5,586833ca-95b0-4750-b3b1-19762c7fe6c4,1761218970730011160,-1.132965,-0.835419,-1.485825,-0.040039,-0.548828,0.85791,1.155002194029007,-33.56835860794072,90.71007875783886,0.6748121380805969,-0.20977574586868286,-0.19865936040878296,0.6790846586227417
089897f7-a439-4954-b9ea-8c99d79603e5,586833ca-95b0-4750-b3b1-19762c7fe6c4,1761218970740693160,-1.375198,-1.199722,-1.54686,-0.023926,-0.559082,0.871094,1.1412274698073979,-33.57200164115254,90.65701901622687,0.6750963926315308,-0.20980744063854218,-0.1986650675535202,0.6787906289100647
089897f7-a439-4954-b9ea-8c99d79603e5,586833ca-95b0-4750-b3b1-19762c7fe6c4,1761218970751361160,-1.194,-1.3237,-1.241684,-0.017578,-0.549805,0.859375,1.1212308749072422,-33.5769454294426,90.62800756483978,0.6752250790596008,-0.20976828038692474,-0.19875922799110413,0.6786471009254456
089897f7-a439-4954-b9ea-8c99d79603e5,586833ca-95b0-4750-b3b1-19762c7fe6c4,1761218970762029160,-1.255035,-1.628876,-1.119614,-0.037109,-0.557129,0.858398,1.1115498236955752,-33.58273246571992,90.61224305045032,0.6752917170524597,-0.20977218449115753,-0.19882188737392426,0.678561270236969
089897f7-a439-4954-b9ea-8c99d79603e5,586833ca-95b0-4750-b3b1-19762c7fe6c4,1761218970772697160,-1.438141,-1.567841,-0.753403,-0.019531,-0.556152,0.853027,1.0934800701565648,-33.589239909431484,90.59919217007469,0.6753264665603638,-0.2097259759902954,-0.19894324243068695,0.6785053610801697
089897f7-a439-4954-b9ea-8c99d79603e5,586833ca-95b0-4750-b3b1-19762c7fe6c4,1761218970780679160,-1.194,-1.811981,-0.448227,-0.026367,-0.556641,0.863769,1.066054067679574,-33.59737024781497,90.56358751820281,0.6754756569862366,-0.20967309176921844,-0.19908814132213593,0.678330659866333
089897f7-a439-4954-b9ea-8c99d79603e5,586833ca-95b0-4750-b3b1-19762c7fe6c4,1761218970788661160,-1.743317,-1.811981,-0.692368,-0.015137,-0.55127,0.858398,1.0467012599594698,-33.60405121532192,90.56981886493195,0.6753936409950256,-0.20958685874938965,-0.1992533802986145,0.6783904433250427
089897f7-a439-4954-b9ea-8c99d79603e5,586833ca-95b0-4750-b3b1-19762c7fe6c4,1761218970796643160,-2.168655,-1.443863,-0.265121,-0.015137,-0.543945,0.85791,1.0346143501838758,-33.61591225641681,90.55661633100804,0.6754303574562073,-0.209607794880867,-0.1993710696697235,0.6783128380775452
089897f7-a439-4954-b9ea-8c99d79603e5,586833ca-95b0-4750-b3b1-19762c7fe6c4,1761218970804625160,-1.741409,-1.504898,-0.265121,-0.040039,-0.564941,0.868652,1.0293364277250896,-33.625511569325276,90.51116893200005,0.6756736040115356,-0.2097119241952896,-0.1993761509656906,0.6780368089675903
089897f7-a439-4954-b9ea-8c99d79603e5,586833ca-95b0-4750-b3b1-19762c7fe6c4,1761218970815320160,-2.046585,-1.565933,0.162125,-0.015625,-0.55957,0.862793,1.0196177154308808,-33.637503099712056,90.49631314953064,0.6757239103317261,-0.20975059270858765,-0.19947759807109833,0.6779448986053467
089897f7-a439-4954-b9ea-8c99d79603e5,586833ca-95b0-4750-b3b1-19762c7fe6c4,1761218970826015160,-1.98555,-1.260757,0.162125,-0.014648,-0.562012,0.859863,1.0099592549366596,-33.65103422554882,90.48928185970576,0.6757253408432007,-0.20978505909442902,-0.1996021568775177,0.6778961420059204
089897f7-a439-4954-b9ea-8c99d79603e5,586833ca-95b0-4750-b3b1-19762c7fe6c4,1761218970836710160,-2.290726,-1.504898,0.4673,-0.019531,-0.564941,0.861816,1.004551211846843,-33.66811004558824,90.49075517213491,0.6756777167320251,-0.20985066890716553,-0.1997382938861847,0.6778831481933594
089897f7-a439-4954-b9ea-8c99d79603e5,586833ca-95b0-4750-b3b1-19762c7fe6c4,1761218970847343160,-1.86348,-1.199722,0.772476,-0.030762,-0.561035,0.854004,0.9994260246404106,-33.682918514448986,90.47018627848009,0.6757648587226868,-0.20994308590888977,-0.19981889426708221,0.6777438521385193
089897f7-a439-4954-b9ea-8c99d79603e5,586833ca-95b0-4750-b3b1-19762c7fe6c4,1761218970857977160,-1.983643,-1.3237,0.406265,-0.018555,-0.569336,0.853516,0.9976091053048398,-33.6996566045922,90.46545202298695,0.6757607460021973,-0.21003879606723785,-0.1999204456806183,0.6776883006095886
089897f7-a439-4954-b9ea-8c99d79603e5,586833ca-95b0-4750-b3b1-19762c7fe6c4,1761218970868611160,-1.802444,-1.688004,1.016617,-0.017578,-0.567383,0.860352,0.9895191864605,-33.71585830652922,90.47431897138448,0.6756661534309387,-0.21007050573825836,-0.2000807225704193,0.6777254939079285
089897f7-a439-4954-b9ea-8c99d79603e5,586833ca-95b0-4750-b3b1-19762c7fe6c4,1761218970876653160,-1.255035,-1.44577,1.016617,-0.020508,-0.566406,0.871582,0.977498602498121,-33.73419335979568,90.41150466674993,0.675984799861908,-0.2102167010307312,-0.2001453936100006,0.6773431897163391
089897f7-a439-4954-b9ea-8c99d79603e5,586833ca-95b0-4750-b3b1-19762c7fe6c4,1761218970884696160,-0.94986,-1.991272,0.772476,-0.002441,-0.569336,0.865723,0.9665348489067227,-33.73709997501954,90.44038159265557,0.6757898926734924,-0.21011850237846375,-0.2002802938222885,0.6775282025337219
089897f7-a439-4954-b9ea-8c99d79603e5,586833ca-95b0-4750-b3b1-19762c7fe6c4,1761218970892739160,-1.008987,-1.749039,0.955582,-0.015625,-0.564941,0.873535,0.9555030975841696,-33.742419194282114,90.45419853096425,0.6756796836853027,-0.21006031334400177,-0.20040228962898254,0.6776201128959656
089897f7-a439-4954-b9ea-8c99d79603e5,586833ca-95b0-4750-b3b1-19762c7fe6c4,1761218970900782160,-1.132965,-1.384735,0.833511,0.0,-0.5625,0.870605,0.9408098854254273,-33.745655900384705,90.42627106183912,0.6758134961128235,-0.21004128456115723,-0.20045697689056396,0.6774763464927673
089897f7-a439-4954-b9ea-8c99d79603e5,586833ca-95b0-4750-b3b1-19762c7fe6c4,1761218970911416160,-0.886917,-1.260757,0.589371,-0.023437,-0.568848,0.874512,0.9371171845378058,-33.74351736756025,90.38709610712644,0.6760423183441162,-0.21007542312145233,-0.20039424300193787,0.6772559881210327
089897f7-a439-4954-b9ea-8c99d79603e5,586833ca-95b0-4750-b3b1-19762c7fe6c4,1761218970922050160,-0.703812,-1.260757,0.284195,-0.01416,-0.566895,0.870117,0.9330929028663678,-33.74201687785555,90.36858509540266,0.6761472821235657,-0.21007519960403442,-0.20037513971328735,0.677156925201416
089897f7-a439-4954-b9ea-8c99d79603e5,586833ca-95b0-4750-b3b1-19762c7fe6c4,1761218970932684160,-0.644684,-0.835419,0.34523,-0.020508,-0.571289,0.878418,0.9323282401107369,-33.737335153205684,90.38065768409024,0.6760827302932739,-0.21002209186553955,-0.20037397742271423,0.6772381663322449
089897f7-a439-4954-b9ea-8c99d79603e5,586833ca-95b0-4750-b3b1-19762c7fe6c4,1761218970943352160,0.272751,-0.772476,-0.265121,-0.013672,-0.552246,0.863281,0.9297776018634027,-33.72828437469013,90.36531548272889,0.6761846542358398,-0.20998069643974304,-0.20030716061592102,0.6771690249443054
089897f7-a439-4954-b9ea-8c99d79603e5,586833ca-95b0-4750-b3b1-19762c7fe6c4,1761218970954021160,0.089645,-0.894547,0.101089,-0.015625,-0.56543,0.868164,0.9278174042306393,-33.72439626743298,90.31072363102496,0.6765105128288269,-0.21004165709018707,-0.20019559562206268,0.6768576502799988
089897f7-a439-4954-b9ea-8c99d79603e5,586833ca-95b0-4750-b3b1-19762c7fe6c4,1761218970964690160,0.02861,-0.894547,-0.204086,-0.015137,-0.560059,0.85791,0.9301084920781021,-33.71933738481017,90.34647596362593,0.6763120889663696,-0.20996302366256714,-0.20021755993366241,0.6770737767219543
089897f7-a439-4954-b9ea-8c99d79603e5,586833ca-95b0-4750-b3b1-19762c7fe6c4,1761218970975386160,0.272751,-0.894547,-0.082016,-0.012695,-0.549805,0.859863,0.9303340239538108,-33.705688009909835,90.33298923629202,0.6764158606529236,-0.20990775525569916,-0.20011048018932343,0.6770188808441162
089897f7-a439-4954-b9ea-8c99d79603e5,586833ca-95b0-4750-b3b1-19762c7fe6c4,1761218970986084160,0.089645,-0.34523,-0.082016,-0.02002,-0.544434,0.859375,0.9337558579961693,-33.69868200180596,90.3044776561433,0.6766024231910706,-0.20993655920028687,-0.1999964565038681,0.6768572926521301
089897f7-a439-4954-b9ea-8c99d79603e5,586833ca-95b0-4750-b3b1-19762c7fe6c4,1761218970996782160,-0.217438,-0.835419,-0.143051,-0.009766,-0.543945,0.856445,0.931539378749782,-33.688056360946774,90.27304552255802,0.6768026351928711,-0.2099158763885498,-0.1998888999223709,0.6766952872276306
089897f7-a439-4954-b9ea-8c99d79603e5,586833ca-95b0-4750-b3b1-19762c7fe6c4,1761218971004757160,-0.520706,-0.101089,-0.265121,-0.015137,-0.554199,0.862793,0.9342652738334674,-33.679381648980964,90.24471334616658,0.676989734172821,-0.20993037521839142,-0.19976942241191864,0.6765389442443848
089897f7-a439-4954-b9ea-8c99d79603e5,586833ca-95b0-4750-b3b1-19762c7fe6c4,1761218971012732160,-0.583649,-0.469208,-0.509262,-0.026855,-0.567383,0.857422,0.9408347665312183,-33.6740598299664,90.22274310252071,0.6771401166915894,-0.2099761664867401,-0.19965878129005432,0.6764068603515625
089897f7-a439-4954-b9ea-8c99d79603e5,586833ca-95b0-4750-b3b1-19762c7fe6c4,1761218971020707160,-0.581741,-0.528336,-0.448227,-0.008789,-0.556641,0.856445,0.9398485373976079,-33.66979379249824,90.20264062202142,0.6772644519805908,-0.2099802941083908,-0.19960246980190277,0.676297664642334
089897f7-a439-4954-b9ea-8c99d79603e5,586833ca-95b0-4750-b3b1-19762c7fe6c4,1761218971028682160,-0.21553,-0.650406,-0.631332,-0.024414,-0.558594,0.853516,0.9446094792146941,-33.66353154353319,90.20884551480273,0.6772469878196716,-0.20996074378490448,-0.19954855740070343,0.6763371825218201
089897f7-a439-4954-b9ea-8c99d79603e5,586833ca-95b0-4750-b3b1-19762c7fe6c4,1761218971039349160,-0.825882,-0.528336,-0.326157,-0.009766,-0.551758,0.859863,0.940407519770319,-33.656559583810754,90.1997074516685,0.6773056983947754,-0.20991085469722748,-0.19951529800891876,0.6763036847114563
089897f7-a439-4954-b9ea-8c99d79603e5,586833ca-95b0-4750-b3b1-19762c7fe6c4,1761218971050016160,-0.886917,-0.589371,-0.448227,-0.019531,-0.547852,0.861328,0.9434349795599233,-33.649087979177516,90.17554604067881,0.6774665117263794,-0.2099268138408661,-0.19940882921218872,0.6761690974235535
089897f7-a439-4954-b9ea-8c99d79603e5,586833ca-95b0-4750-b3b1-19762c7fe6c4,1761218971060683160,-0.520706,-0.711441,-0.570297,-0.008789,-0.562012,0.864746,0.9422249374517084,-33.6422999308291,90.21588465342423,0.6772381067276001,-0.2098095417022705,-0.1994495987892151,0.6764222383499146
089897f7-a439-4954-b9ea-8c99d79603e5,586833ca-95b0-4750-b3b1-19762c7fe6c4,1761218971071911160,-0.337601,-0.772476,-0.753403,-0.020508,-0.550293,0.860352,0.9399450846210066,-33.62874724117009,90.20889275411919,0.677298903465271,-0.20972853899002075,-0.199369877576828,0.6764100193977356
089897f7-a439-4954-b9ea-8c99d79603e5,586833ca-95b0-4750-b3b1-19762c7fe6c4,1761218971083140160,-0.94986,-0.835419,-0.753403,-0.01123,-0.560547,0.856445,0.9349463415759665,-33.626883850978295,90.18462854431041,0.6774366497993469,-0.20973029732704163,-0.1993439644575119,0.6762791275978088
089897f7-a439-4954-b9ea-8c99d79603e5,586833ca-95b0-4750-b3b1-19762c7fe6c4,1761218971094369160,-0.766754,-0.835419,-0.387192,-0.018555,-0.546387,0.852051,0.9326145948747424,-33.62663621855082,90.17095437181732,0.6775137186050415,-0.2097388654947281,-0.19933125376701355,0.6762030124664307
