section id,recording id,timestamp [ns],gyro x [deg/s],gyro y [deg/s],gyro z [deg/s],acceleration x [g],acceleration y [g],acceleration z [g],roll [deg],pitch [deg],yaw [deg],quaternion w,quaternion x,quaternion y,quaternion z
c11a1927-7e28-402c-9820-9cb4a207e338,35fa68e6-762d-4e48-934b-b96a1e252d2d,1760610467884782656,-4.577637,-0.835419,-0.230789,-0.089844,-0.630371,0.81543,5.309740019067131,-38.34554423807736,148.91012369174794,0.2675132155418396,-0.13006962835788727,-0.30434006452560425,0.90492844581604
c11a1927-7e28-402c-9820-9cb4a207e338,35fa68e6-762d-4e48-934b-b96a1e252d2d,1760610467892799656,-4.455566,-1.018524,0.440598,-0.083984,-0.641602,0.812012,5.313191452770101,-38.37886026096077,148.9139675706252,0.26747873425483704,-0.13015592098236084,-0.30460184812545776,0.9048380851745605
c11a1927-7e28-402c-9820-9cb4a207e338,35fa68e6-762d-4e48-934b-b96a1e252d2d,1760610467900816656,-4.638672,-1.140594,0.379562,-0.096191,-0.624023,0.806152,5.315617625186038,-38.412664254034254,148.9214879208447,0.2674122750759125,-0.1302253007888794,-0.3048740327358246,0.9047561287879944
c11a1927-7e28-402c-9820-9cb4a207e338,35fa68e6-762d-4e48-934b-b96a1e252d2d,1760610467908833656,-4.333496,-0.713348,0.684738,-0.081055,-0.644531,0.808105,5.321651602635615,-38.44541637373894,148.93150050137896,0.2673361897468567,-0.13031430542469025,-0.30513226985931396,0.9046787023544312
c11a1927-7e28-402c-9820-9cb4a207e338,35fa68e6-762d-4e48-934b-b96a1e252d2d,1760610467916874656,-4.272461,-1.018524,0.318527,-0.065918,-0.63916,0.809082,5.32269886264534,-38.480201388832356,148.92343191731462,0.2673887312412262,-0.13041627407073975,-0.30539771914482117,0.9045589566230774
c11a1927-7e28-402c-9820-9cb4a207e338,35fa68e6-762d-4e48-934b-b96a1e252d2d,1760610467924915656,-3.969193,-1.264572,0.745773,-0.077148,-0.641113,0.806641,5.315573769365612,-38.512615393745264,148.91180639561657,0.2674484848976135,-0.13045834004878998,-0.30565929412841797,0.9044468402862549
c11a1927-7e28-402c-9820-9cb4a207e338,35fa68e6-762d-4e48-934b-b96a1e252d2d,1760610467932956656,-4.030228,-1.138687,0.440598,-0.082031,-0.635254,0.811523,5.307751834152059,-38.54545178852426,148.90264321961268,0.26748669147491455,-0.1304892599582672,-0.30592861771583557,0.9043400287628174
c11a1927-7e28-402c-9820-9cb4a207e338,35fa68e6-762d-4e48-934b-b96a1e252d2d,1760610467940997656,-3.541946,-1.569748,0.074387,-0.068359,-0.642578,0.817383,5.301075273108364,-38.57051110008023,148.88854083117977,0.26757001876831055,-0.13052630424499512,-0.3061276972293854,0.9042426347732544
c11a1927-7e28-402c-9820-9cb4a207e338,35fa68e6-762d-4e48-934b-b96a1e252d2d,1760610467950545656,-3.601074,-1.3237,-0.108719,-0.062012,-0.640625,0.813477,5.289038391852965,-38.598623127392635,148.8598429067615,0.26775285601615906,-0.13056646287441254,-0.30634692311286926,0.9041085243225098
c11a1927-7e28-402c-9820-9cb4a207e338,35fa68e6-762d-4e48-934b-b96a1e252d2d,1760610467960093656,-3.295898,-1.567841,-0.413895,-0.0625,-0.640137,0.807617,5.268173973653541,-38.62498665464237,148.84144039997327,0.2678314745426178,-0.13050593435764313,-0.30658459663391113,0.9040133953094482
c11a1927-7e28-402c-9820-9cb4a207e338,35fa68e6-762d-4e48-934b-b96a1e252d2d,1760610467969641656,-3.356934,-1.3237,-0.47493,-0.062012,-0.640137,0.807617,5.249996372987042,-38.6495577399534,148.80101512943213,0.26809161901474,-0.13052192330360413,-0.30677664279937744,0.9038687944412231
c11a1927-7e28-402c-9820-9cb4a207e338,35fa68e6-762d-4e48-934b-b96a1e252d2d,1760610467979189656,-3.175735,-1.264572,-0.963211,-0.071777,-0.633301,0.817871,5.230009514676107,-38.67705825646573,148.7241265410777,0.268633097410202,-0.1306276023387909,-0.30695468187332153,0.9036322832107544
c11a1927-7e28-402c-9820-9cb4a207e338,35fa68e6-762d-4e48-934b-b96a1e252d2d,1760610467988737656,-2.807617,-1.628876,-0.658035,-0.069824,-0.638672,0.809082,5.211169926035907,-38.69752090581403,148.6370059915933,0.269260972738266,-0.13075530529022217,-0.3070623278617859,0.9033903479576111
c11a1927-7e28-402c-9820-9cb4a207e338,35fa68e6-762d-4e48-934b-b96a1e252d2d,1760610467996737656,-2.624512,-1.3237,-0.597,-0.071289,-0.632812,0.794922,5.194682026220742,-38.71914241070808,148.5582856773022,0.2698281705379486,-0.13088171184062958,-0.3071832060813904,0.9031617045402527
c11a1927-7e28-402c-9820-9cb4a207e338,35fa68e6-762d-4e48-934b-b96a1e252d2d,1760610468004737656,-2.565384,-1.569748,-0.658035,-0.07666,-0.640137,0.783691,5.178141716426977,-38.74379687843505,148.49157677500443,0.2702990472316742,-0.13098213076591492,-0.3073420226573944,0.902952253818512
c11a1927-7e28-402c-9820-9cb4a207e338,35fa68e6-762d-4e48-934b-b96a1e252d2d,1760610468012737656,-2.565384,-1.443863,-0.71907,-0.083496,-0.637207,0.806641,5.162605610772339,-38.763240757238236,148.39541507126518,0.27100664377212524,-0.131158709526062,-0.30742329359054565,0.9026868343353271
c11a1927-7e28-402c-9820-9cb4a207e338,35fa68e6-762d-4e48-934b-b96a1e252d2d,1760610468020737656,-2.13623,-1.384735,-0.47493,-0.070312,-0.645508,0.805664,5.148942212470383,-38.77919178606157,148.255735436425,0.27206316590309143,-0.13145962357521057,-0.30742236971855164,0.9023255109786987
c11a1927-7e28-402c-9820-9cb4a207e338,35fa68e6-762d-4e48-934b-b96a1e252d2d,1760610468028753656,-2.319336,-1.628876,-0.413895,-0.085938,-0.636719,0.810547,5.134711115910314,-38.79846093460114,148.11330522780963,0.2731378376483917,-0.13177073001861572,-0.3074457049369812,0.9019474387168884
c11a1927-7e28-402c-9820-9cb4a207e338,35fa68e6-762d-4e48-934b-b96a1e252d2d,1760610468036769656,-2.258301,-1.44577,-0.535965,-0.066895,-0.638184,0.79541,5.12487808570277,-38.817669998030546,147.9611799866908,0.2743000388145447,-0.1321425884962082,-0.30744653940200806,0.9015399813652039
c11a1927-7e28-402c-9820-9cb4a207e338,35fa68e6-762d-4e48-934b-b96a1e252d2d,1760610468044785656,-2.565384,-1.508713,-0.535965,-0.081543,-0.638672,0.79248,5.107502764222007,-38.83953508943214,147.78781605498443,0.2756071984767914,-0.13251809775829315,-0.30746158957481384,0.9010809063911438
c11a1927-7e28-402c-9820-9cb4a207e338,35fa68e6-762d-4e48-934b-b96a1e252d2d,1760610468052801656,-2.624512,-1.811981,-0.230789,-0.071289,-0.63916,0.799316,5.097264635651247,-38.86292331466289,147.65295003222872,0.27662938833236694,-0.1328500509262085,-0.3075156509876251,0.9007002711296082
c11a1927-7e28-402c-9820-9cb4a207e338,35fa68e6-762d-4e48-934b-b96a1e252d2d,1760610468063435656,-2.746582,-1.873016,-0.413895,-0.066406,-0.635742,0.804687,5.082837836151401,-38.885383384099036,147.5152960582097,0.27766209840774536,-0.13315486907958984,-0.30756887793540955,0.9003192782402039
c11a1927-7e28-402c-9820-9cb4a207e338,35fa68e6-762d-4e48-934b-b96a1e252d2d,1760610468074069656,-2.807617,-1.995087,-0.597,-0.062988,-0.65625,0.798828,5.064572526475211,-38.9047199610129,147.36546525590262,0.2787810266017914,-0.13345573842525482,-0.3075922131538391,0.8999208807945251
c11a1927-7e28-402c-9820-9cb4a207e338,35fa68e6-762d-4e48-934b-b96a1e252d2d,1760610468084703656,-2.258301,-1.873016,-0.230789,-0.050293,-0.650391,0.817383,5.0477127711482375,-38.92368596026041,147.21860743029123,0.27987992763519287,-0.13375914096832275,-0.3076123595237732,0.8995277881622314
c11a1927-7e28-402c-9820-9cb4a207e338,35fa68e6-762d-4e48-934b-b96a1e252d2d,1760610468095390656,-2.13623,-1.506805,-0.658035,-0.068848,-0.658691,0.8125,5.023972627177886,-38.93841261208341,147.06733271396394,0.2809964418411255,-0.13401134312152863,-0.3076103627681732,0.8991427421569824
c11a1927-7e28-402c-9820-9cb4a207e338,35fa68e6-762d-4e48-934b-b96a1e252d2d,1760610468106077656,-2.077103,-1.508713,-0.658035,-0.061523,-0.647461,0.815918,5.008260514973873,-38.95497704861918,146.90265885246697,0.28223809599876404,-0.13436678051948547,-0.30758726596832275,0.8987086415290833
c11a1927-7e28-402c-9820-9cb4a207e338,35fa68e6-762d-4e48-934b-b96a1e252d2d,1760610468116764656,-1.527786,-1.264572,-0.780106,-0.054687,-0.644531,0.798828,4.988356079305951,-38.965935507265215,146.71787723932633,0.2836281657218933,-0.13473103940486908,-0.30750617384910583,0.8982440829277039
c11a1927-7e28-402c-9820-9cb4a207e338,35fa68e6-762d-4e48-934b-b96a1e252d2d,1760610468124763656,-0.854492,-1.3237,-0.71907,-0.066895,-0.642578,0.807129,4.951000535411263,-38.97821782522492,146.50471526533653,0.2851922810077667,-0.13503777980804443,-0.30744510889053345,0.8977235555648804
c11a1927-7e28-402c-9820-9cb4a207e338,35fa68e6-762d-4e48-934b-b96a1e252d2d,1760610468132763656,-1.037598,-1.384735,-0.413895,-0.072754,-0.639648,0.796875,4.940244602858757,-38.981237883747745,146.50323265447273,0.28517353534698486,-0.13496428728103638,-0.30749401450157166,0.8977237939834595
c11a1927-7e28-402c-9820-9cb4a207e338,35fa68e6-762d-4e48-934b-b96a1e252d2d,1760610468140763656,-0.366211,-1.20163,-0.47493,-0.060547,-0.637695,0.80127,4.928991525986033,-38.98052055111955,146.49859755810735,0.285180002450943,-0.1348869502544403,-0.3075108826160431,0.8977276086807251
c11a1927-7e28-402c-9820-9cb4a207e338,35fa68e6-762d-4e48-934b-b96a1e252d2d,1760610468148763656,-0.488281,-1.20163,-0.230789,-0.068359,-0.634766,0.805664,4.921665919224668,-38.976156448218234,146.4968166910644,0.28517648577690125,-0.13482452929019928,-0.30749252438545227,0.897744357585907
c11a1927-7e28-402c-9820-9cb4a207e338,35fa68e6-762d-4e48-934b-b96a1e252d2d,1760610468159449656,-0.368118,-1.081467,0.074387,-0.066406,-0.635742,0.811035,4.917115285352055,-38.97049792140289,146.4939537543682,0.28518953919410706,-0.13478383421897888,-0.30745574831962585,0.8977589011192322
c11a1927-7e28-402c-9820-9cb4a207e338,35fa68e6-762d-4e48-934b-b96a1e252d2d,1760610468170135656,-0.366211,-0.652313,0.196457,-0.074707,-0.630859,0.804199,4.9183180943272795,-38.965663646346734,146.49471243721698,0.2851892411708832,-0.13478034734725952,-0.3074154257774353,0.8977733254432678
c11a1927-7e28-402c-9820-9cb4a207e338,35fa68e6-762d-4e48-934b-b96a1e252d2d,1760610468180821656,-0.183105,-0.591278,0.013351,-0.057617,-0.631836,0.806641,4.9130506099508,-38.959083510081186,146.49139923306504,0.28520435094833374,-0.1347331553697586,-0.3073725998401642,0.8977903127670288
c11a1927-7e28-402c-9820-9cb4a207e338,35fa68e6-762d-4e48-934b-b96a1e252d2d,1760610468191486656,-0.368118,-0.104904,0.257492,-0.064453,-0.626465,0.785156,4.90645765497409,-38.95556641472024,146.48725209439948,0.2852209210395813,-0.1346847116947174,-0.3073563277721405,0.8977978825569153
c11a1927-7e28-402c-9820-9cb4a207e338,35fa68e6-762d-4e48-934b-b96a1e252d2d,1760610468202152656,-0.488281,-0.347137,0.257492,-0.066895,-0.621582,0.78125,4.903854150477045,-38.95082295172184,146.48561926072625,0.2852291166782379,-0.13465802371501923,-0.3073233962059021,0.8978105187416077
c11a1927-7e28-402c-9820-9cb4a207e338,35fa68e6-762d-4e48-934b-b96a1e252d2d,1760610468212818656,-1.403809,-0.164032,0.257492,-0.063477,-0.627441,0.793945,4.9026678266148815,-38.95434799922383,146.40925991585442,0.2858223617076874,-0.13486143946647644,-0.30726441740989685,0.8976114988327026
c11a1927-7e28-402c-9820-9cb4a207e338,35fa68e6-762d-4e48-934b-b96a1e252d2d,1760610468220807656,-1.710892,-0.104904,0.318527,-0.060547,-0.649902,0.788574,4.894849448278749,-38.978263745392255,146.2204000641372,0.2872682213783264,-0.1353607177734375,-0.3072502911090851,0.8970794677734375
c11a1927-7e28-402c-9820-9cb4a207e338,35fa68e6-762d-4e48-934b-b96a1e252d2d,1760610468228797656,-2.199173,-0.41008,0.379562,-0.0625,-0.642578,0.795898,4.8930620703549055,-38.995602958050405,146.2248851915656,0.28721949458122253,-0.1353740394115448,-0.3073970675468445,0.8970427513122559
c11a1927-7e28-402c-9820-9cb4a207e338,35fa68e6-762d-4e48-934b-b96a1e252d2d,1760610468236787656,-2.13623,-0.347137,0.318527,-0.057129,-0.640137,0.79248,4.891236514565972,-39.01002931355303,146.22857763537135,0.2871783375740051,-0.13538256287574768,-0.30751997232437134,0.8970125317573547
c11a1927-7e28-402c-9820-9cb4a207e338,35fa68e6-762d-4e48-934b-b96a1e252d2d,1760610468244777656,-2.319336,-0.225067,0.318527,-0.066406,-0.630371,0.80127,4.891738328301893,-39.02380658623101,146.23451783672533,0.2871261537075043,-0.13540178537368774,-0.307634562253952,0.8969870805740356
c11a1927-7e28-402c-9820-9cb4a207e338,35fa68e6-762d-4e48-934b-b96a1e252d2d,1760610468254382656,-2.13623,-0.041962,0.196457,-0.060059,-0.635254,0.806152,4.8898812032913535,-39.034411018777604,146.1236343912407,0.28798356652259827,-0.1357090026140213,-0.30759182572364807,0.8966803550720215
c11a1927-7e28-402c-9820-9cb4a207e338,35fa68e6-762d-4e48-934b-b96a1e252d2d,1760610468263987656,-1.525879,0.141144,0.135422,-0.054687,-0.632812,0.810059,4.88284536729412,-39.04214951172136,146.12170603582481,0.2879757881164551,-0.13567672669887543,-0.3076683282852173,0.8966615200042725
c11a1927-7e28-402c-9820-9cb4a207e338,35fa68e6-762d-4e48-934b-b96a1e252d2d,1760610468273592656,-1.588821,-0.28801,-0.169754,-0.057617,-0.648926,0.803711,4.875480486925183,-39.052830447825954,146.00245283800203,0.2888834774494171,-0.13596361875534058,-0.30762985348701477,0.8963392376899719
c11a1927-7e28-402c-9820-9cb4a207e338,35fa68e6-762d-4e48-934b-b96a1e252d2d,1760610468283197656,-1.405716,0.383377,-0.169754,-0.06543,-0.647949,0.794922,4.876335541879827,-39.06491606269835,145.78127154868585,0.2906090021133423,-0.1365916132926941,-0.3074600398540497,0.8957440257072449
c11a1927-7e28-402c-9820-9cb4a207e338,35fa68e6-762d-4e48-934b-b96a1e252d2d,1760610468292802656,-1.647949,0.56839,-0.047684,-0.062012,-0.641113,0.796875,4.87473472773508,-39.07626707941378,145.5526876719049,0.29238492250442505,-0.1372184157371521,-0.3072805404663086,0.8951317071914673
c11a1927-7e28-402c-9820-9cb4a207e338,35fa68e6-762d-4e48-934b-b96a1e252d2d,1760610468303456656,-1.405716,0.383377,-0.108719,-0.063477,-0.64502,0.802734,4.875160248856645,-39.08498118361927,145.3181655137291,0.2942127585411072,-0.1378706395626068,-0.3070666491985321,0.8945057392120361
c11a1927-7e28-402c-9820-9cb4a207e338,35fa68e6-762d-4e48-934b-b96a1e252d2d,1760610468314110656,-1.588821,0.383377,-0.169754,-0.059082,-0.626465,0.799805,4.876055693340491,-39.094105402525436,145.17678690702937,0.29531362652778625,-0.13827772438526154,-0.3069658875465393,0.89411461353302
c11a1927-7e28-402c-9820-9cb4a207e338,35fa68e6-762d-4e48-934b-b96a1e252d2d,1760610468324764656,-1.525879,0.141144,-0.230789,-0.068359,-0.641113,0.805176,4.878251127278865,-39.10429292402359,145.0070338600039,0.296638160943985,-0.1387733817100525,-0.30683523416519165,0.8936440944671631
c11a1927-7e28-402c-9820-9cb4a207e338,35fa68e6-762d-4e48-934b-b96a1e252d2d,1760610468332770656,-1.462936,0.200272,-0.230789,-0.065918,-0.645508,0.803711,4.878079628873875,-39.114343365571344,144.77543239936858,0.2984377145767212,-0.1394156962633133,-0.3066336512565613,0.8930139541625977
c11a1927-7e28-402c-9820-9cb4a207e338,35fa68e6-762d-4e48-934b-b96a1e252d2d,1760610468340777656,-1.647949,0.385284,-0.71907,-0.070312,-0.631836,0.809082,4.873779385642919,-39.12468746503465,144.52159784095718,0.3003978729248047,-0.14008577167987823,-0.30641669034957886,0.8923260569572449
c11a1927-7e28-402c-9820-9cb4a207e338,35fa68e6-762d-4e48-934b-b96a1e252d2d,1760610468348784656,-1.588821,0.261307,-0.780106,-0.069336,-0.641602,0.802734,4.87625097094004,-39.13150002800324,144.26643482847922,0.3023868501186371,-0.14080332219600677,-0.30615100264549255,0.8916322588920593
c11a1927-7e28-402c-9820-9cb4a207e338,35fa68e6-762d-4e48-934b-b96a1e252d2d,1760610468356791656,-1.342773,0.263214,-0.780106,-0.06543,-0.650391,0.80957,4.874367901211994,-39.1394124968703,144.0035602082618,0.30442193150520325,-0.1415097713470459,-0.30589431524276733,0.8909157514572144
c11a1927-7e28-402c-9820-9cb4a207e338,35fa68e6-762d-4e48-934b-b96a1e252d2d,1760610468364789656,-1.527786,0.078201,-0.841141,-0.049805,-0.643066,0.798828,4.86860334240279,-39.14686512373847,143.74151255116428,0.3064388036727905,-0.14218230545520782,-0.30564379692077637,0.8902029395103455
c11a1927-7e28-402c-9820-9cb4a207e338,35fa68e6-762d-4e48-934b-b96a1e252d2d,1760610468372787656,-1.281738,0.324249,-1.024246,-0.081055,-0.641113,0.807129,4.856793670597152,-39.1559800971812,143.4804537385785,0.3084292411804199,-0.1428089588880539,-0.3054223358631134,0.8894909620285034
c11a1927-7e28-402c-9820-9cb4a207e338,35fa68e6-762d-4e48-934b-b96a1e252d2d,1760610468380785656,-0.915527,0.324249,-0.963211,-0.078613,-0.645996,0.812012,4.8590872806029015,-39.15333636277937,143.27463924363906,0.31003400683403015,-0.14336855709552765,-0.3051384389400482,0.8889402747154236
c11a1927-7e28-402c-9820-9cb4a207e338,35fa68e6-762d-4e48-934b-b96a1e252d2d,1760610468388783656,-0.732422,-0.164032,-0.963211,-0.070801,-0.646484,0.820801,4.8568095151441915,-39.153937499978824,143.0564576133102,0.3117195665836334,-0.14393311738967896,-0.30487582087516785,0.8883494734764099
c11a1927-7e28-402c-9820-9cb4a207e338,35fa68e6-762d-4e48-934b-b96a1e252d2d,1760610468399604656,-0.305176,-0.164032,-1.268387,-0.063477,-0.637695,0.814941,4.858799763142697,-39.147688578568726,142.8217758147045,0.313547283411026,-0.14455698430538177,-0.30452606081962585,0.8877246975898743
c11a1927-7e28-402c-9820-9cb4a207e338,35fa68e6-762d-4e48-934b-b96a1e252d2d,1760610468410425656,-0.244141,0.141144,-1.512527,-0.081055,-0.647949,0.810059,4.843518503209091,-39.143503897335414,142.62145381911333,0.3150606155395508,-0.14496026933193207,-0.30428215861320496,0.8872066736221313
c11a1927-7e28-402c-9820-9cb4a207e338,35fa68e6-762d-4e48-934b-b96a1e252d2d,1760610468421246656,0.12207,-0.225067,-1.268387,-0.064941,-0.639648,0.805176,4.844966642476773,-39.13836481755257,142.42962082510186,0.31655240058898926,-0.14546766877174377,-0.30399489402770996,0.8866909146308899
c11a1927-7e28-402c-9820-9cb4a207e338,35fa68e6-762d-4e48-934b-b96a1e252d2d,1760610468431756656,0.854492,0.141144,-1.695633,-0.062988,-0.638672,0.806152,4.829438436396728,-39.12305755555743,141.95658364028628,0.32017841935157776,-0.1465621441602707,-0.3033156991004944,0.885440468788147
c11a1927-7e28-402c-9820-9cb4a207e338,35fa68e6-762d-4e48-934b-b96a1e252d2d,1760610468442268656,0.671387,-0.102997,-1.451492,-0.077637,-0.635742,0.806641,4.819378001523352,-39.112195106907286,141.70131401625713,0.32213032245635986,-0.1471317708492279,-0.3029319941997528,0.8847691416740417
c11a1927-7e28-402c-9820-9cb4a207e338,35fa68e6-762d-4e48-934b-b96a1e252d2d,1760610468452780656,0.368118,0.200272,-1.390457,-0.068848,-0.64502,0.79834,4.808202591740904,-39.106149192728616,141.43651323417112,0.32414835691452026,-0.14772948622703552,-0.3025756776332855,0.8840541243553162
c11a1927-7e28-402c-9820-9cb4a207e338,35fa68e6-762d-4e48-934b-b96a1e252d2d,1760610468463528656,-0.061035,-0.225067,-1.695633,-0.078613,-0.619141,0.784668,4.795206411404288,-39.10448693357601,141.1788391263449,0.32610222697257996,-0.14830495417118073,-0.3022667467594147,0.8833446502685547
c11a1927-7e28-402c-9820-9cb4a207e338,35fa68e6-762d-4e48-934b-b96a1e252d2d,1760610468474278656,-0.610352,-0.164032,-1.634598,-0.071289,-0.640625,0.80127,4.788671679559367,-39.102842468895275,140.93717320829109,0.32794827222824097,-0.14888742566108704,-0.30195921659469604,0.882668137550354
c11a1927-7e28-402c-9820-9cb4a207e338,35fa68e6-762d-4e48-934b-b96a1e252d2d,1760610468485028656,-0.673294,-0.28801,-1.268387,-0.06543,-0.646973,0.804687,4.779435464475444,-39.10577527213143,140.75798532375632,0.3293018639087677,-0.14929607510566711,-0.30177539587020874,0.8821578621864319
c11a1927-7e28-402c-9820-9cb4a207e338,35fa68e6-762d-4e48-934b-b96a1e252d2d,1760610468495620656,-0.976562,-0.591278,-1.207352,-0.070801,-0.638672,0.798828,4.761111228846778,-39.11298765678013,140.3254786248719,0.33257606625556946,-0.1503124237060547,-0.3013189733028412,0.8809121251106262
c11a1927-7e28-402c-9820-9cb4a207e338,35fa68e6-762d-4e48-934b-b96a1e252d2d,1760610468506212656,-0.793457,-0.469208,-0.902176,-0.069336,-0.627441,0.800293,4.756290463734493,-39.111361266296285,140.12945128702333,0.33407095074653625,-0.15078625082969666,-0.30106282234191895,0.8803529143333435
c11a1927-7e28-402c-9820-9cb4a207e338,35fa68e6-762d-4e48-934b-b96a1e252d2d,1760610468516804656,-0.793457,-0.713348,-0.902176,-0.065918,-0.636719,0.807617,4.7445000773368164,-39.11165345886983,139.978664909452,0.33519792556762695,-0.151092529296875,-0.3009009063243866,0.8799272775650024
c11a1927-7e28-402c-9820-9cb4a207e338,35fa68e6-762d-4e48-934b-b96a1e252d2d,1760610468527483656,-0.8564,-0.593185,-1.085281,-0.076172,-0.630371,0.794434,4.726594962637789,-39.11535247868008,139.77755134848755,0.336692214012146,-0.15149302780628204,-0.3007165789604187,0.8793507218360901
c11a1927-7e28-402c-9820-9cb4a207e338,35fa68e6-762d-4e48-934b-b96a1e252d2d,1760610468538162656,-0.488281,-0.713348,-0.780106,-0.064453,-0.648926,0.800781,4.725913486315707,-39.107545127318424,139.57012700594075,0.33828699588775635,-0.15201060473918915,-0.3003833591938019,0.8787630200386047
c11a1927-7e28-402c-9820-9cb4a207e338,35fa68e6-762d-4e48-934b-b96a1e252d2d,1760610468548841656,-0.244141,-0.347137,-1.085281,-0.07373,-0.637207,0.811035,4.724510399237612,-39.10236311605801,139.34085261830558,0.34004446864128113,-0.15258634090423584,-0.30004262924194336,0.878101110458374
c11a1927-7e28-402c-9820-9cb4a207e338,35fa68e6-762d-4e48-934b-b96a1e252d2d,1760610468556827656,-0.062943,-0.593185,-0.902176,-0.078125,-0.655762,0.790527,4.7285710709461615,-39.09659578558803,138.89402102237497,0.34348058700561523,-0.15377023816108704,-0.299388587474823,0.8767794370651245
c11a1927-7e28-402c-9820-9cb4a207e338,35fa68e6-762d-4e48-934b-b96a1e252d2d,1760610468564814656,-0.062943,-0.898361,-0.780106,-0.072754,-0.634277,0.8125,4.7276765505368985,-39.09095032005641,138.6386577500982,0.3454352915287018,-0.15441444516181946,-0.2990042269229889,0.8760291337966919
c11a1927-7e28-402c-9820-9cb4a207e338,35fa68e6-762d-4e48-934b-b96a1e252d2d,1760610468572801656,0.305176,-0.835419,-0.658035,-0.066895,-0.619141,0.803711,4.730531187438202,-39.07869851131771,138.43271010454663,0.34702539443969727,-0.15493904054164886,-0.2986229360103607,0.8754379153251648
c11a1927-7e28-402c-9820-9cb4a207e338,35fa68e6-762d-4e48-934b-b96a1e252d2d,1760610468580788656,0.0,-0.957489,-0.535965,-0.067383,-0.634766,0.805176,4.731856855154817,-39.07203304105579,138.29432008481405,0.34809064865112305,-0.15529094636440277,-0.2983801066875458,0.8750353455543518
c11a1927-7e28-402c-9820-9cb4a207e338,35fa68e6-762d-4e48-934b-b96a1e252d2d,1760610468591453656,0.368118,-0.776291,-0.71907,-0.069336,-0.641602,0.802734,4.730485450302655,-39.06369030175176,138.08092220950275,0.3497220575809479,-0.15581227838993073,-0.29803019762039185,0.8744112253189087
c11a1927-7e28-402c-9820-9cb4a207e338,35fa68e6-762d-4e48-934b-b96a1e252d2d,1760610468602118656,0.305176,-0.347137,-0.658035,-0.06543,-0.639648,0.801758,4.727779981600734,-39.056253962031214,137.86152578000136,0.3513939678668976,-0.1563408374786377,-0.2976822853088379,0.8737648725509644
c11a1927-7e28-402c-9820-9cb4a207e338,35fa68e6-762d-4e48-934b-b96a1e252d2d,1760610468612783656,0.547409,-0.28801,-0.535965,-0.071289,-0.625,0.787598,4.728730300683418,-39.0520138101364,137.65069375966755,0.3530065715312958,-0.15688340365886688,-0.29735854268074036,0.8731275796890259
c11a1927-7e28-402c-9820-9cb4a207e338,35fa68e6-762d-4e48-934b-b96a1e252d2d,1760610468620905656,0.242233,-0.28801,-0.597,-0.054687,-0.626953,0.799805,4.728857745656619,-39.04551828049828,137.43222618401543,0.35467568039894104,-0.15743234753608704,-0.2970084846019745,0.872471272945404
c11a1927-7e28-402c-9820-9cb4a207e338,35fa68e6-762d-4e48-934b-b96a1e252d2d,1760610468629025656,0.183105,0.141144,-0.71907,-0.050781,-0.628418,0.799805,4.72575488918959,-39.04040374106119,137.21051897447197,0.3563588261604309,-0.15796832740306854,-0.29667362570762634,0.8718022108078003
c11a1927-7e28-402c-9820-9cb4a207e338,35fa68e6-762d-4e48-934b-b96a1e252d2d,1760610468637145656,-0.244141,-0.164032,-0.841141,-0.06543,-0.638672,0.79541,4.722656678415754,-39.034456610558145,136.98829030224107,0.3580453097820282,-0.15850256383419037,-0.29633066058158875,0.871130645275116
c11a1927-7e28-402c-9820-9cb4a207e338,35fa68e6-762d-4e48-934b-b96a1e252d2d,1760610468645265656,-0.549316,0.019073,-1.268387,-0.065918,-0.634277,0.800293,4.717243853808964,-39.033045480664676,136.76296082266492,0.359744668006897,-0.1590397208929062,-0.2960245609283447,0.870436429977417
c11a1927-7e28-402c-9820-9cb4a207e338,35fa68e6-762d-4e48-934b-b96a1e252d2d,1760610468655775656,-1.039505,-0.104904,-1.085281,-0.066406,-0.634277,0.799316,4.71217764167656,-39.031735228940576,136.54242034322291,0.36140716075897217,-0.15956686437129974,-0.2957238554954529,0.8697531819343567
c11a1927-7e28-402c-9820-9cb4a207e338,35fa68e6-762d-4e48-934b-b96a1e252d2d,1760610468666285656,-0.610352,0.263214,-1.634598,-0.072266,-0.629395,0.810059,4.71310245390718,-39.02805305501386,136.33014191541943,0.36302295327186584,-0.16011057794094086,-0.2953965663909912,0.8690913319587708
c11a1927-7e28-402c-9820-9cb4a207e338,35fa68e6-762d-4e48-934b-b96a1e252d2d,1760610468676795656,-0.917435,0.261307,-1.268387,-0.070312,-0.638672,0.808105,4.708811152830319,-39.02985977477809,136.15526232890605,0.36433640122413635,-0.16053400933742523,-0.2951793670654297,0.8685372471809387
c11a1927-7e28-402c-9820-9cb4a207e338,35fa68e6-762d-4e48-934b-b96a1e252d2d,1760610468687707656,-0.366211,-0.347137,-1.085281,-0.05957,-0.637695,0.813477,4.70196917713201,-39.020348202563376,135.81944801310036,0.3668699562549591,-0.16131821274757385,-0.2946566939353943,0.8675023317337036
c11a1927-7e28-402c-9820-9cb4a207e338,35fa68e6-762d-4e48-934b-b96a1e252d2d,1760610468698619656,-0.488281,-0.347137,-1.085281,-0.072754,-0.625,0.803711,4.704415727576741,-39.0131382924608,135.58440335084813,0.3686605393886566,-0.16191917657852173,-0.2942621409893036,0.8667648434638977
c11a1927-7e28-402c-9820-9cb4a207e338,35fa68e6-762d-4e48-934b-b96a1e252d2d,1760610468709531656,-0.429153,-0.28801,-0.963211,-0.072266,-0.633789,0.810547,4.712175752338431,-39.00675452774271,135.35587928242802,0.37041330337524414,-0.1625450998544693,-0.29386472702026367,0.866034984588623
c11a1927-7e28-402c-9820-9cb4a207e338,35fa68e6-762d-4e48-934b-b96a1e252d2d,1760610468719941656,-0.610352,-0.225067,-0.413895,-0.082031,-0.633301,0.795898,4.7136519480899395,-39.001003175660216,135.13798760895426,0.37206774950027466,-0.1630973368883133,-0.293506383895874,0.8653431534767151
c11a1927-7e28-402c-9820-9cb4a207e338,35fa68e6-762d-4e48-934b-b96a1e252d2d,1760610468730351656,-0.793457,-0.713348,-0.413895,-0.080078,-0.623047,0.807617,4.719229473599832,-38.992419125919646,134.94301598033965,0.37356069684028625,-0.1636124849319458,-0.29314470291137695,0.8647251129150391
c11a1927-7e28-402c-9820-9cb4a207e338,35fa68e6-762d-4e48-934b-b96a1e252d2d,1760610468740761656,-0.8564,-0.593185,0.074387,-0.068848,-0.63623,0.797852,4.72464552242148,-38.984435707718696,134.72331680899453,0.37523818016052246,-0.16419067978858948,-0.29275181889533997,0.8640220165252686
c11a1927-7e28-402c-9820-9cb4a207e338,35fa68e6-762d-4e48-934b-b96a1e252d2d,1760610468748768656,-0.976562,-0.774384,0.196457,-0.078613,-0.631348,0.803223,4.724088997290121,-38.98589472940031,134.3799220282214,0.3778230845928192,-0.16506752371788025,-0.2922714352607727,0.862890362739563
c11a1927-7e28-402c-9820-9cb4a207e338,35fa68e6-762d-4e48-934b-b96a1e252d2d,1760610468756777656,-1.22261,-0.955582,0.135422,-0.054199,-0.630859,0.820312,4.713044717608905,-38.98602689078562,134.16278898760848,0.3794291913509369,-0.16553834080696106,-0.29199570417404175,0.8621885180473328
c11a1927-7e28-402c-9820-9cb4a207e338,35fa68e6-762d-4e48-934b-b96a1e252d2d,1760610468764786656,-0.976562,-1.018524,0.379562,-0.061035,-0.643555,0.808105,4.706936759510075,-38.99057441046558,133.9772602233369,0.3808053135871887,-0.1659790724515915,-0.2917822301387787,0.8615691065788269
c11a1927-7e28-402c-9820-9cb4a207e338,35fa68e6-762d-4e48-934b-b96a1e252d2d,1760610468772795656,-1.281738,-1.018524,0.013351,-0.068359,-0.635254,0.799316,4.699857690154476,-38.99730631162651,133.8432880092093,0.3817887306213379,-0.1662878394126892,-0.2916627824306488,0.8611146807670593
c11a1927-7e28-402c-9820-9cb4a207e338,35fa68e6-762d-4e48-934b-b96a1e252d2d,1760610468783462656,-0.976562,-0.896454,0.257492,-0.050293,-0.633789,0.807617,4.6911514900031115,-38.996354849940474,133.67877579180092,0.38300323486328125,-0.16663803160190582,-0.29144561290740967,0.8605810403823853
c11a1927-7e28-402c-9820-9cb4a207e338,35fa68e6-762d-4e48-934b-b96a1e252d2d,1760610468794129656,-0.671387,-1.079559,0.196457,-0.065918,-0.646484,0.808594,4.685524803428824,-38.99500362143327,133.47631930054578,0.3845099210739136,-0.16710622608661652,-0.29115936160087585,0.859915018081665
c11a1927-7e28-402c-9820-9cb4a207e338,35fa68e6-762d-4e48-934b-b96a1e252d2d,1760610468804796656,-0.671387,-1.079559,0.135422,-0.061035,-0.629395,0.807617,4.684241099295976,-38.98838295969686,133.2356882901653,0.3863171637058258,-0.16768677532672882,-0.29076188802719116,0.859126091003418
c11a1927-7e28-402c-9820-9cb4a207e338,35fa68e6-762d-4e48-934b-b96a1e252d2d,1760610468812806656,-0.610352,-1.3237,0.257492,-0.065918,-0.646973,0.803223,4.670135435395527,-38.98774389521498,133.0066495100064,0.3879983425140381,-0.16815990209579468,-0.29046905040740967,0.8583747744560242
c11a1927-7e28-402c-9820-9cb4a207e338,35fa68e6-762d-4e48-934b-b96a1e252d2d,1760610468820815656,-0.671387,-1.44577,0.501633,-0.049316,-0.623047,0.79248,4.657426561691683,-38.988185614741035,132.7994421024896,0.38951727747917175,-0.16859114170074463,-0.2902110517024994,0.8576892614364624
c11a1927-7e28-402c-9820-9cb4a207e338,35fa68e6-762d-4e48-934b-b96a1e252d2d,1760610468828824656,-0.734329,-1.386642,0.379562,-0.068359,-0.634766,0.805176,4.6413229657218675,-38.987380987572934,132.58046411647805,0.3911155164241791,-0.16902241110801697,-0.28993722796440125,0.8569693565368652
c11a1927-7e28-402c-9820-9cb4a207e338,35fa68e6-762d-4e48-934b-b96a1e252d2d,1760610468844818656,-0.671387,-0.957489,0.440598,-0.046875,-0.630371,0.802734,4.62252639389607,-38.98153410691683,132.31244297820902,0.39307644963264465,-0.1695408821105957,-0.28956136107444763,0.8560963273048401
c11a1927-7e28-402c-9820-9cb4a207e338,35fa68e6-762d-4e48-934b-b96a1e252d2d,1760610468852804656,-0.608444,-1.081467,0.257492,-0.057617,-0.639648,0.79834,4.615440206655738,-38.980627358326565,132.16307941485954,0.39417487382888794,-0.1698623150587082,-0.28935763239860535,0.8555963635444641
c11a1927-7e28-402c-9820-9cb4a207e338,35fa68e6-762d-4e48-934b-b96a1e252d2d,1760610468860790656,-0.734329,-0.593185,0.135422,-0.058105,-0.640625,0.792969,4.611303772434264,-38.97635573251171,131.94187124038214,0.39581912755966187,-0.17037588357925415,-0.2890112102031708,0.8548519015312195
c11a1927-7e28-402c-9820-9cb4a207e338,35fa68e6-762d-4e48-934b-b96a1e252d2d,1760610468868776656,-0.976562,-0.286102,0.135422,-0.052246,-0.629883,0.799805,4.602062477212147,-38.97025616486217,131.75574142722698,0.39718925952911377,-0.17075636982917786,-0.2887200713157654,0.8542386293411255
c11a1927-7e28-402c-9820-9cb4a207e338,35fa68e6-762d-4e48-934b-b96a1e252d2d,1760610468879423656,-1.281738,-0.591278,0.196457,-0.063965,-0.631348,0.781738,4.59797206746989,-38.97497221777585,131.56275200284628,0.3986128568649292,-0.17122730612754822,-0.2884818911552429,0.8535614609718323
c11a1927-7e28-402c-9820-9cb4a207e338,35fa68e6-762d-4e48-934b-b96a1e252d2d,1760610468890070656,-1.525879,-0.164032,0.013351,-0.052246,-0.631348,0.794922,4.592281373920656,-38.98298701594367,131.3423587135866,0.4002322554588318,-0.1717657595872879,-0.28823232650756836,0.8527794480323792
c11a1927-7e28-402c-9820-9cb4a207e338,35fa68e6-762d-4e48-934b-b96a1e252d2d,1760610468900717656,-1.708984,-0.041962,-0.352859,-0.058594,-0.648438,0.80127,4.586375506876679,-38.99556900533796,131.14138900411558,0.40170103311538696,-0.17226852476596832,-0.28804612159729004,0.8520500063896179
c11a1927-7e28-402c-9820-9cb4a207e338,35fa68e6-762d-4e48-934b-b96a1e252d2d,1760610468911417656,-2.016068,-0.104904,-0.413895,-0.067383,-0.651855,0.799805,4.582045277101195,-39.00710156547771,130.95478654691541,0.40306663513183594,-0.1727433055639267,-0.2878672480583191,0.8513691425323486
c11a1927-7e28-402c-9820-9cb4a207e338,35fa68e6-762d-4e48-934b-b96a1e252d2d,1760610468922118656,-1.708984,-0.225067,-0.108719,-0.067383,-0.63916,0.816895,4.579840017416585,-39.0210194201568,130.78315588910488,0.4043230712413788,-0.17320404946804047,-0.287720650434494,0.8507291078567505
c11a1927-7e28-402c-9820-9cb4a207e338,35fa68e6-762d-4e48-934b-b96a1e252d2d,1760610468932819656,-2.01416,-0.164032,-0.352859,-0.067871,-0.650391,0.79541,4.576991454082528,-39.029629044472756,130.58996922930424,0.4057416617870331,-0.1736963987350464,-0.28750303387641907,0.8500266075134277
c11a1927-7e28-402c-9820-9cb4a207e338,35fa68e6-762d-4e48-934b-b96a1e252d2d,1760610468943483656,-1.159668,-0.164032,-0.108719,-0.067871,-0.645996,0.822754,4.573566762424023,-39.04502561402385,130.24114374783028,0.40830445289611816,-0.17459701001644135,-0.2871007025241852,0.8487499952316284
c11a1927-7e28-402c-9820-9cb4a207e338,35fa68e6-762d-4e48-934b-b96a1e252d2d,1760610468954145656,-0.608444,-0.28801,-0.71907,-0.055664,-0.646484,0.80957,4.570176667117207,-39.04058328202119,130.08390533857616,0.40946435928344727,-0.17495077848434448,-0.28683966398239136,0.8482064008712769
c11a1927-7e28-402c-9820-9cb4a207e338,35fa68e6-762d-4e48-934b-b96a1e252d2d,1760610468964807656,-0.305176,-0.102997,-0.47493,-0.06543,-0.650879,0.818848,4.568495634136001,-39.03306748847267,129.8640318665343,0.41109395027160645,-0.1754630208015442,-0.28645315766334534,0.847442626953125
c11a1927-7e28-402c-9820-9cb4a207e338,35fa68e6-762d-4e48-934b-b96a1e252d2d,1760610468972783656,-0.062943,-0.41008,-0.47493,-0.05957,-0.644531,0.798828,4.566042542735076,-39.030366988373196,129.6761556453722,0.4124792218208313,-0.17590515315532684,-0.2861537039279938,0.8467787504196167
c11a1927-7e28-402c-9820-9cb4a207e338,35fa68e6-762d-4e48-934b-b96a1e252d2d,1760610468980759656,0.488281,-0.164032,-0.597,-0.060547,-0.640137,0.810059,4.5640987209003185,-39.02793711949713,129.4785151606475,0.4139365255832672,-0.17637580633163452,-0.2858387231826782,0.8460758328437805
c11a1927-7e28-402c-9820-9cb4a207e338,35fa68e6-762d-4e48-934b-b96a1e252d2d,1760610468988735656,0.366211,-0.041962,-0.658035,-0.063477,-0.648438,0.791504,4.562023923021288,-39.022319777654,129.2597978233392,0.4155508279800415,-0.17688655853271484,-0.28546708822250366,0.8453029990196228
c11a1927-7e28-402c-9820-9cb4a207e338,35fa68e6-762d-4e48-934b-b96a1e252d2d,1760610469004722656,0.242233,-0.776291,-0.352859,-0.071777,-0.63623,0.802246,4.565715785364692,-39.02143410343205,128.85203340840164,0.41856616735458374,-0.17792539298534393,-0.2848157584667206,0.8438156247138977
c11a1927-7e28-402c-9820-9cb4a207e338,35fa68e6-762d-4e48-934b-b96a1e252d2d,1760610469012733656,0.0,-0.957489,-0.780106,-0.060059,-0.626465,0.79541,4.565136581620936,-39.01767919852634,128.65205282466266,0.4200403094291687,-0.17840492725372314,-0.28447893261909485,0.8430951833724976
c11a1927-7e28-402c-9820-9cb4a207e338,35fa68e6-762d-4e48-934b-b96a1e252d2d,1760610469020744656,0.059128,-0.53215,-0.352859,-0.06543,-0.630371,0.797363,4.56165990805662,-39.0128126896382,128.44805566463705,0.4215366244316101,-0.1788686215877533,-0.28413739800453186,0.842365026473999
c11a1927-7e28-402c-9820-9cb4a207e338,35fa68e6-762d-4e48-934b-b96a1e252d2d,1760610469028755656,-0.183105,-0.896454,-0.169754,-0.071289,-0.636719,0.788574,4.563154491329807,-39.0073357869691,128.2440956028628,0.4230443239212036,-0.17936597764492035,-0.2837722897529602,0.8416261672973633
c11a1927-7e28-402c-9820-9cb4a207e338,35fa68e6-762d-4e48-934b-b96a1e252d2d,1760610469039443656,-0.551224,-0.776291,0.013351,-0.061035,-0.646484,0.80127,4.561257759223201,-39.00600774512729,128.13575244349127,0.42383646965026855,-0.17961563169956207,-0.28359970450401306,0.8412324786186218
c11a1927-7e28-402c-9820-9cb4a207e338,35fa68e6-762d-4e48-934b-b96a1e252d2d,1760610469050131656,-0.732422,-0.835419,0.074387,-0.056641,-0.63623,0.786621,4.557038320390831,-39.00443606107179,127.99860876714403,0.42483407258987427,-0.17991846799850464,-0.28338849544525146,0.8407355546951294
c11a1927-7e28-402c-9820-9cb4a207e338,35fa68e6-762d-4e48-934b-b96a1e252d2d,1760610469060819656,-0.671387,-0.530243,-0.230789,-0.073242,-0.637695,0.806152,4.559062921410346,-39.001254070875305,127.80812445246754,0.42623916268348694,-0.18039295077323914,-0.28305783867836,0.8400338292121887
c11a1927-7e28-402c-9820-9cb4a207e338,35fa68e6-762d-4e48-934b-b96a1e252d2d,1760610469068817656,-0.671387,-0.225067,0.196457,-0.062012,-0.632324,0.799805,4.55873618113,-38.997116808156626,127.61873640561701,0.427630215883255,-0.1808435469865799,-0.2827298045158386,0.8393401503562927
c11a1927-7e28-402c-9820-9cb4a207e338,35fa68e6-762d-4e48-934b-b96a1e252d2d,1760610469076815656,-1.039505,-0.28801,0.379562,-0.063965,-0.632812,0.792969,4.560005790945086,-38.99342529009826,127.4370053479977,0.42896759510040283,-0.181287944316864,-0.28241050243377686,0.8386690616607666
c11a1927-7e28-402c-9820-9cb4a207e338,35fa68e6-762d-4e48-934b-b96a1e252d2d,1760610469084813656,-0.549316,-1.018524,0.379562,-0.05127,-0.636719,0.80957,4.554589688400918,-38.98786555754303,127.25380721977474,0.4303000569343567,-0.1816798746585846,-0.2820994257926941,0.8380060791969299
c11a1927-7e28-402c-9820-9cb4a207e338,35fa68e6-762d-4e48-934b-b96a1e252d2d,1760610469092811656,-0.854492,-0.896454,0.257492,-0.043457,-0.644043,0.80127,4.544626133649125,-38.98304436465479,127.05553688235278,0.4317297041416168,-0.18207773566246033,-0.2817864716053009,0.8372893929481506
c11a1927-7e28-402c-9820-9cb4a207e338,35fa68e6-762d-4e48-934b-b96a1e252d2d,1760610469103476656,-0.734329,-0.955582,0.196457,-0.062012,-0.639648,0.79248,4.544915088000342,-38.97978649203702,126.84559160612511,0.4332669973373413,-0.18258416652679443,-0.28142720460891724,0.8365054726600647
c11a1927-7e28-402c-9820-9cb4a207e338,35fa68e6-762d-4e48-934b-b96a1e252d2d,1760610469114141656,-0.917435,-1.081467,0.257492,-0.069336,-0.655273,0.805176,4.534251666623575,-38.987077417767075,126.73069374506322,0.43407195806503296,-0.1828145682811737,-0.28133833408355713,0.8360676169395447
c11a1927-7e28-402c-9820-9cb4a207e338,35fa68e6-762d-4e48-934b-b96a1e252d2d,1760610469124806656,-1.220703,-0.530243,-0.47493,-0.046387,-0.639648,0.799316,4.524803295806557,-38.989362517730015,126.58474327619975,0.4351109564304352,-0.18311205506324768,-0.2811580300331116,0.8355229496955872
c11a1927-7e28-402c-9820-9cb4a207e338,35fa68e6-762d-4e48-934b-b96a1e252d2d,1760610469132786656,-1.344681,-0.104904,-0.597,-0.054687,-0.647461,0.803223,4.517383604011375,-38.99984444347959,126.38550425643294,0.4365341067314148,-0.18358436226844788,-0.28094494342803955,0.8347482681274414
c11a1927-7e28-402c-9820-9cb4a207e338,35fa68e6-762d-4e48-934b-b96a1e252d2d,1760610469140769656,-1.588821,0.020981,-1.268387,-0.054687,-0.654785,0.808105,4.508084310984415,-39.01342757657204,126.21070081090748,0.43777021765708923,-0.1839941442012787,-0.28080037236213684,0.8340590596199036
c11a1927-7e28-402c-9820-9cb4a207e338,35fa68e6-762d-4e48-934b-b96a1e252d2d,1760610469148752656,-2.502441,0.263214,-1.268387,-0.058594,-0.663086,0.799316,4.499094760160347,-39.03381327228786,126.08165271345774,0.4386661648750305,-0.18431875109672546,-0.28077781200408936,0.8335240483283997
c11a1927-7e28-402c-9820-9cb4a207e338,35fa68e6-762d-4e48-934b-b96a1e252d2d,1760610469156735656,-2.685547,-0.530243,-1.512527,-0.057129,-0.675293,0.812988,4.486762238444145,-39.056800473395135,125.87409922640795,0.4401210844516754,-0.1848209947347641,-0.2806603014469147,0.8326850533485413
c11a1927-7e28-402c-9820-9cb4a207e338,35fa68e6-762d-4e48-934b-b96a1e252d2d,1760610469167418656,-2.382278,-0.715256,-1.390457,-0.056152,-0.684082,0.805176,4.470640034594351,-39.08171049686875,125.64796581391386,0.4416979253292084,-0.18534842133522034,-0.2805405855178833,0.8317727446556091
c11a1927-7e28-402c-9820-9cb4a207e338,35fa68e6-762d-4e48-934b-b96a1e252d2d,1760610469178101656,-2.565384,-1.020432,-1.878738,-0.06543,-0.67041,0.821777,4.447277265628166,-39.11260899634251,125.40777827797082,0.4433506727218628,-0.18587997555732727,-0.2804691195487976,0.830798327922821
c11a1927-7e28-402c-9820-9cb4a207e338,35fa68e6-762d-4e48-934b-b96a1e252d2d,1760610469188784656,-2.319336,-1.506805,-1.695633,-0.060059,-0.684082,0.806152,4.425839515199909,-39.136924544312684,125.21005815181731,0.4447052776813507,-0.18629784882068634,-0.2804098427295685,0.8300003409385681
c11a1927-7e28-402c-9820-9cb4a207e338,35fa68e6-762d-4e48-934b-b96a1e252d2d,1760610469199445656,-1.768112,-1.264572,-1.756668,-0.044922,-0.669922,0.808594,4.369639140830654,-39.18897451487331,124.82532434239697,0.4472961723804474,-0.187024787068367,-0.2803839147090912,0.8284519910812378
c11a1927-7e28-402c-9820-9cb4a207e338,35fa68e6-762d-4e48-934b-b96a1e252d2d,1760610469210104656,-1.403809,-1.3237,-2.305984,-0.036133,-0.676758,0.824707,4.328951064563855,-39.210851255086965,124.709892311841,0.4480072855949402,-0.18709437549114227,-0.28051480650901794,0.8280075788497925
c11a1927-7e28-402c-9820-9cb4a207e338,35fa68e6-762d-4e48-934b-b96a1e252d2d,1760610469220763656,-0.366211,-1.018524,-2.183914,-0.039062,-0.688477,0.813965,4.293621401358842,-39.22284777672988,124.68065921350673,0.44811898469924927,-0.1869552582502365,-0.2806931436061859,0.8279181122779846
c11a1927-7e28-402c-9820-9cb4a207e338,35fa68e6-762d-4e48-934b-b96a1e252d2d,1760610469228777656,0.059128,-0.776291,-2.672195,-0.044922,-0.688477,0.82373,4.2564378426480385,-39.2302815061644,124.46554134155978,0.449573278427124,-0.18724119663238525,-0.2805419862270355,0.8271159529685974
c11a1927-7e28-402c-9820-9cb4a207e338,35fa68e6-762d-4e48-934b-b96a1e252d2d,1760610469236794656,1.831055,-1.079559,-2.733231,-0.030273,-0.696777,0.825195,4.215748781675875,-39.22062906120653,124.25080401148438,0.4510335624217987,-0.1874370276927948,-0.280280202627182,0.8263649940490723
c11a1927-7e28-402c-9820-9cb4a207e338,35fa68e6-762d-4e48-934b-b96a1e252d2d,1760610469244811656,3.04985,0.078201,-3.160477,-0.029297,-0.677734,0.840332,4.177583737240793,-39.20506820638871,124.05441564225463,0.45237311720848083,-0.18758364021778107,-0.27999556064605713,0.8256956934928894
c11a1927-7e28-402c-9820-9cb4a207e338,35fa68e6-762d-4e48-934b-b96a1e252d2d,1760610469252828656,4.821777,-0.164032,-3.770828,-0.025391,-0.670898,0.819824,4.135418806921015,-39.165353243364365,123.85553505394869,0.4537467956542969,-0.18761590123176575,-0.2795466482639313,0.8250865340232849
c11a1927-7e28-402c-9820-9cb4a207e338,35fa68e6-762d-4e48-934b-b96a1e252d2d,1760610469263572656,6.284714,0.383377,-4.50325,-0.031738,-0.654297,0.817383,4.088272487272677,-39.11673474620337,123.64257786576829,0.45521894097328186,-0.18761175870895386,-0.2790302336215973,0.8244511485099792
c11a1927-7e28-402c-9820-9cb4a207e338,35fa68e6-762d-4e48-934b-b96a1e252d2d,1760610469274316656,7.324219,0.629425,-4.930496,-0.029297,-0.655762,0.810059,4.039829001509229,-39.05522492274318,123.4176051278741,0.45678818225860596,-0.1875770092010498,-0.2784063220024109,0.8238017559051514
c11a1927-7e28-402c-9820-9cb4a207e338,35fa68e6-762d-4e48-934b-b96a1e252d2d,1760610469285060656,8.056641,0.507355,-5.601883,-0.036133,-0.633301,0.805176,3.991123763943046,-38.99159760301734,123.26534347361633,0.4578361511230469,-0.18735404312610626,-0.27788811922073364,0.8234456181526184
c11a1927-7e28-402c-9820-9cb4a207e338,35fa68e6-762d-4e48-934b-b96a1e252d2d,1760610469295716656,7.873535,1.117706,-6.944656,-0.02002,-0.628906,0.793945,3.881075897191752,-38.848079854840314,122.91431177247702,0.46025407314300537,-0.18686337769031525,-0.2767113447189331,0.8226050734519958
c11a1927-7e28-402c-9820-9cb4a207e338,35fa68e6-762d-4e48-934b-b96a1e252d2d,1760610469306373656,7.749557,1.115799,-7.188797,-0.047363,-0.623047,0.78125,3.8328982198670256,-38.781709421851325,122.66580264311398,0.46199697256088257,-0.1868613213300705,-0.27601754665374756,0.8218612670898438
c11a1927-7e28-402c-9820-9cb4a207e338,35fa68e6-762d-4e48-934b-b96a1e252d2d,1760610469317030656,7.444382,0.749588,-7.005692,-0.049805,-0.623047,0.772461,3.783904142846025,-38.71834578595389,122.44962253496237,0.46350187063217163,-0.1867850124835968,-0.27540281414985657,0.8212372660636902
c11a1927-7e28-402c-9820-9cb4a207e338,35fa68e6-762d-4e48-934b-b96a1e252d2d,1760610469324974656,7.017136,0.688553,-7.249832,-0.049316,-0.628906,0.781738,3.732555651866446,-38.6622667555745,122.18207185706046,0.46535995602607727,-0.18684151768684387,-0.2747679352760315,0.8203858137130737
c11a1927-7e28-402c-9820-9cb4a207e338,35fa68e6-762d-4e48-934b-b96a1e252d2d,1760610469332920656,6.410599,0.688553,-7.188797,-0.038086,-0.612305,0.781738,3.6865311846769435,-38.60885382402008,121.91792627397103,0.46720200777053833,-0.18693621456623077,-0.27413737773895264,0.819527804851532
c11a1927-7e28-402c-9820-9cb4a207e338,35fa68e6-762d-4e48-934b-b96a1e252d2d,1760610469340866656,5.79834,1.117706,-7.066727,-0.034668,-0.603516,0.784668,3.6411456116145864,-38.556590969061965,121.65700870638727,0.4690198302268982,-0.18703021109104156,-0.27351877093315125,0.8186742663383484
c11a1927-7e28-402c-9820-9cb4a207e338,35fa68e6-762d-4e48-934b-b96a1e252d2d,1760610469348812656,4.882812,0.934601,-6.944656,-0.055664,-0.616699,0.793945,3.5963974477406615,-38.50968840988034,121.40072329533226,0.47079843282699585,-0.18713687360286713,-0.27294477820396423,0.817820131778717
c11a1927-7e28-402c-9820-9cb4a207e338,35fa68e6-762d-4e48-934b-b96a1e252d2d,1760610469359492656,4.392624,1.35994,-6.151199,-0.055664,-0.615234,0.782715,3.5597465792717022,-38.469579970100256,121.14931429014347,0.472552090883255,-0.18731486797332764,-0.2723952531814575,0.8169506788253784
c11a1927-7e28-402c-9820-9cb4a207e338,35fa68e6-762d-4e48-934b-b96a1e252d2d,1760610469370172656,3.723145,1.239777,-6.456375,-0.049316,-0.622559,0.800293,3.526327619929087,-38.435299884945216,120.90651185585038,0.4742436707019806,-0.18751704692840576,-0.27188894152641296,0.816092312335968
c11a1927-7e28-402c-9820-9cb4a207e338,35fa68e6-762d-4e48-934b-b96a1e252d2d,1760610469380852656,2.929688,1.300812,-6.39534,-0.053223,-0.634766,0.811035,3.488922575989613,-38.40622714857455,120.6647792458727,0.475910484790802,-0.187707781791687,-0.2714387774467468,0.8152275681495667
c11a1927-7e28-402c-9820-9cb4a207e338,35fa68e6-762d-4e48-934b-b96a1e252d2d,1760610469391551656,3.234863,1.483917,-5.968094,-0.032227,-0.612793,0.801758,3.4263597786131417,-38.345964081821855,120.18073991033334,0.4792752265930176,-0.1881655901670456,-0.2704722285270691,0.813470184803009
c11a1927-7e28-402c-9820-9cb4a207e338,35fa68e6-762d-4e48-934b-b96a1e252d2d,1760610469402248656,3.051758,1.117706,-6.090164,-0.041504,-0.621094,0.808105,3.3894778843137616,-38.31445269370838,119.97064283292931,0.48071739077568054,-0.18827205896377563,-0.27005535364151,0.8127327561378479
c11a1927-7e28-402c-9820-9cb4a207e338,35fa68e6-762d-4e48-934b-b96a1e252d2d,1760610469412945656,3.417969,1.483917,-6.51741,-0.034668,-0.619141,0.816895,3.3465265532214783,-38.28157264770836,119.81568255031875,0.48175516724586487,-0.1881992220878601,-0.2697452902793884,0.8122379183769226
c11a1927-7e28-402c-9820-9cb4a207e338,35fa68e6-762d-4e48-934b-b96a1e252d2d,1760610469423563656,4.148483,1.848221,-6.883621,-0.010742,-0.618164,0.800781,3.303284139525144,-38.240724794423684,119.61563315659642,0.48312103748321533,-0.18819725513458252,-0.2693059742450714,0.8115726113319397
c11a1927-7e28-402c-9820-9cb4a207e338,35fa68e6-762d-4e48-934b-b96a1e252d2d,1760610469434182656,4.333496,2.58255,-7.493973,-0.020508,-0.624023,0.81543,3.255123739297014,-38.2022960647377,119.34448350870424,0.4849746525287628,-0.1883360892534256,-0.26878875494003296,0.8106057643890381
c11a1927-7e28-402c-9820-9cb4a207e338,35fa68e6-762d-4e48-934b-b96a1e252d2d,1760610469444801656,4.699707,3.253937,-8.53157,-0.038574,-0.605957,0.797852,3.213959093440371,-38.15810770801655,119.05762196989583,0.4869610667228699,-0.18853594362735748,-0.2681756317615509,0.8095707893371582
c11a1927-7e28-402c-9820-9cb4a207e338,35fa68e6-762d-4e48-934b-b96a1e252d2d,1760610469452785656,4.636765,2.885818,-9.569168,-0.054687,-0.617676,0.802246,3.141670349726847,-38.069460387011,118.49945952760352,0.4908417761325836,-0.1889629364013672,-0.26693204045295715,0.8075361251831055
c11a1927-7e28-402c-9820-9cb4a207e338,35fa68e6-762d-4e48-934b-b96a1e252d2d,1760610469460769656,4.272461,2.155304,-9.813309,-0.045898,-0.622559,0.825195,3.0958917080500026,-38.0260082053892,118.19409876595527,0.49294060468673706,-0.18917030096054077,-0.2663152813911438,0.8064119815826416
c11a1927-7e28-402c-9820-9cb4a207e338,35fa68e6-762d-4e48-934b-b96a1e252d2d,1760610469468753656,3.90625,1.728058,-10.240555,-0.032715,-0.617188,0.816406,3.039874912197636,-37.98865169218216,117.9352050675376,0.49467891454696655,-0.18922138214111328,-0.2658635675907135,0.8054840564727783
c11a1927-7e28-402c-9820-9cb4a207e338,35fa68e6-762d-4e48-934b-b96a1e252d2d,1760610469476737656,3.90625,1.789093,-10.118484,-0.060059,-0.611328,0.82959,2.988003168529907,-37.948541567715765,117.75492105298969,0.4958767294883728,-0.18910665810108185,-0.26550522446632385,0.8048924803733826
c11a1927-7e28-402c-9820-9cb4a207e338,35fa68e6-762d-4e48-934b-b96a1e252d2d,1760610469487414656,3.90625,2.155304,-10.17952,-0.050293,-0.605957,0.806152,2.9396710968968063,-37.90893045757025,117.53302652956322,0.4973735809326172,-0.18911434710025787,-0.2650673985481262,0.8041110038757324
c11a1927-7e28-402c-9820-9cb4a207e338,35fa68e6-762d-4e48-934b-b96a1e252d2d,1760610469498091656,3.90625,1.972198,-9.874344,-0.065918,-0.615234,0.816895,2.89798301643652,-37.87016527985194,117.25140394426074,0.4993022382259369,-0.18930895626544952,-0.2645089328289032,0.8030531406402588
c11a1927-7e28-402c-9820-9cb4a207e338,35fa68e6-762d-4e48-934b-b96a1e252d2d,1760610469508768656,4.272461,0.812531,-9.935379,-0.054199,-0.606934,0.836914,2.844836627754811,-37.82482828593216,117.02222554880389,0.5008438229560852,-0.18927285075187683,-0.26404136419296265,0.8022552132606506
c11a1927-7e28-402c-9820-9cb4a207e338,35fa68e6-762d-4e48-934b-b96a1e252d2d,1760610469519436656,4.514694,0.261307,-9.508133,-0.042969,-0.597656,0.84375,2.7829580247791874,-37.76920032827476,116.78371301189837,0.5024430155754089,-0.18915197253227234,-0.263525128364563,0.8014530539512634
c11a1927-7e28-402c-9820-9cb4a207e338,35fa68e6-762d-4e48-934b-b96a1e252d2d,1760610469530107656,5.554199,-0.102997,-8.836746,-0.042969,-0.600098,0.833496,2.720366237618421,-37.70770284340335,116.52210599972287,0.5042086243629456,-0.18905235826969147,-0.2629340887069702,0.8005613684654236
c11a1927-7e28-402c-9820-9cb4a207e338,35fa68e6-762d-4e48-934b-b96a1e252d2d,1760610469540778656,5.554199,0.385284,-8.836746,-0.046875,-0.576172,0.839355,2.6606959145159,-37.64559367092231,116.24293401143979,0.5061030387878418,-0.18900874257087708,-0.2622986435890198,0.7995840907096863
c11a1927-7e28-402c-9820-9cb4a207e338,35fa68e6-762d-4e48-934b-b96a1e252d2d,1760610469551447656,5.737305,0.812531,-8.958817,-0.043945,-0.575195,0.828125,2.549697664926498,-37.508904262891775,115.73723112460235,0.509556233882904,-0.18879877030849457,-0.26099488139152527,0.7978653311729431
c11a1927-7e28-402c-9820-9cb4a207e338,35fa68e6-762d-4e48-934b-b96a1e252d2d,1760610469562118656,5.493164,0.629425,-8.592606,-0.051758,-0.557129,0.819336,2.5038885007323657,-37.43995032851573,115.49374059262158,0.5112388134002686,-0.18873392045497894,-0.2603134214878082,0.797026515007019
c11a1927-7e28-402c-9820-9cb4a207e338,35fa68e6-762d-4e48-934b-b96a1e252d2d,1760610469572789656,4.394531,0.934601,-7.982254,-0.031738,-0.574707,0.808594,2.454935341664611,-37.38446986039271,115.23931774928441,0.5129709243774414,-0.1887286752462387,-0.2597239017486572,0.7961066365242004
c11a1927-7e28-402c-9820-9cb4a207e338,35fa68e6-762d-4e48-934b-b96a1e252d2d,1760610469580797656,3.721237,0.871658,-7.371902,-0.049316,-0.571289,0.792969,2.412217240278003,-37.33400806262031,115.1539147156892,0.5135354995727539,-0.18840444087982178,-0.2594209611415863,0.7959181666374207
c11a1927-7e28-402c-9820-9cb4a207e338,35fa68e6-762d-4e48-934b-b96a1e252d2d,1760610469588808656,2.195358,0.688553,-6.944656,-0.041992,-0.579102,0.799316,2.374614714242731,-37.30334052600371,115.00044460647271,0.5145574808120728,-0.18835602700710297,-0.25912249088287354,0.795366644859314
c11a1927-7e28-402c-9820-9cb4a207e338,35fa68e6-762d-4e48-934b-b96a1e252d2d,1760610469596819656,0.854492,0.995636,-6.39534,-0.047852,-0.57373,0.793945,2.343012565514923,-37.28174416434307,114.75778551403846,0.5161986351013184,-0.18859007954597473,-0.25871437788009644,0.7943799495697021
c11a1927-7e28-402c-9820-9cb4a207e338,35fa68e6-762d-4e48-934b-b96a1e252d2d,1760610469604830656,-0.793457,0.934601,-6.090164,-0.049316,-0.577637,0.80957,2.3183395185149775,-37.27364134236919,114.54572400143081,0.517623245716095,-0.18886184692382812,-0.25841978192329407,0.7934837937355042
c11a1927-7e28-402c-9820-9cb4a207e338,35fa68e6-762d-4e48-934b-b96a1e252d2d,1760610469615458656,-1.464844,1.056671,-5.235672,-0.036621,-0.584473,0.825684,2.300375615722841,-37.26948380204921,114.3296439355081,0.5190837979316711,-0.1892061084508896,-0.2581155598163605,0.7925461530685425
c11a1927-7e28-402c-9820-9cb4a207e338,35fa68e6-762d-4e48-934b-b96a1e252d2d,1760610469626086656,-1.953125,0.995636,-4.686356,-0.038086,-0.587402,0.833008,2.2791269054307772,-37.27082048151607,114.09452641966662,0.5206592082977295,-0.18959450721740723,-0.25783267617225647,0.7915112972259521
c11a1927-7e28-402c-9820-9cb4a207e338,35fa68e6-762d-4e48-934b-b96a1e252d2d,1760610469636714656,-1.403809,0.812531,-4.442215,-0.044434,-0.578125,0.816406,2.257977532157477,-37.269183177955746,113.87109686371227,0.5221562385559082,-0.18994365632534027,-0.2575474977493286,0.7905336618423462
c11a1927-7e28-402c-9820-9cb4a207e338,35fa68e6-762d-4e48-934b-b96a1e252d2d,1760610469647403656,-2.13623,0.44632,-2.977371,-0.061523,-0.578125,0.820312,2.244132778030157,-37.27349899134151,113.64244481494642,0.5236955285072327,-0.19038112461566925,-0.2572612464427948,0.789502739906311
c11a1927-7e28-402c-9820-9cb4a207e338,35fa68e6-762d-4e48-934b-b96a1e252d2d,1760610469658093656,-1.710892,0.383377,-2.244949,-0.055664,-0.578613,0.82959,2.241993393913077,-37.27174389399657,113.5546940303586,0.5242975950241089,-0.19055546820163727,-0.257112979888916,0.7891092896461487
c11a1927-7e28-402c-9820-9cb4a207e338,35fa68e6-762d-4e48-934b-b96a1e252d2d,1760610469668783656,-2.13623,0.202179,-1.207352,-0.047363,-0.593262,0.829102,2.2422057381047797,-37.27663704164689,113.40283823713749,0.525336503982544,-0.19091947376728058,-0.25689321756362915,0.7884016036987305
c11a1927-7e28-402c-9820-9cb4a207e338,35fa68e6-762d-4e48-934b-b96a1e252d2d,1760610469679459656,-2.321243,0.200272,-0.291824,-0.053223,-0.59082,0.810059,2.2492376024426277,-37.279199875227754,113.31808305094742,0.5259316563606262,-0.19116930663585663,-0.25673744082450867,0.787994921207428
c11a1927-7e28-402c-9820-9cb4a207e338,35fa68e6-762d-4e48-934b-b96a1e252d2d,1760610469690136656,-3.053665,0.383377,0.806808,-0.035645,-0.599609,0.805176,2.263979213492079,-37.294159259939846,113.21719983826178,0.5266372561454773,-0.1915639340877533,-0.25660499930381775,0.787470817565918
c11a1927-7e28-402c-9820-9cb4a207e338,35fa68e6-762d-4e48-934b-b96a1e252d2d,1760610469700813656,-3.112793,0.629425,0.989914,-0.04248,-0.601562,0.811523,2.2774768148387587,-37.314373098499,113.06795993369268,0.5276642441749573,-0.19208185374736786,-0.2564331591129303,0.7867127656936646
c11a1927-7e28-402c-9820-9cb4a207e338,35fa68e6-762d-4e48-934b-b96a1e252d2d,1760610469708797656,-4.211426,1.483917,1.41716,-0.02832,-0.598145,0.816895,2.3090357257040734,-37.37022094667584,112.74911983179206,0.5298429727554321,-0.19326387345790863,-0.2561379075050354,0.7850533723831177
c11a1927-7e28-402c-9820-9cb4a207e338,35fa68e6-762d-4e48-934b-b96a1e252d2d,1760610469716783656,-5.00679,1.848221,0.928879,-0.033691,-0.606445,0.820312,2.330886957207039,-37.402813885789385,112.60972383700226,0.5308003425598145,-0.19387276470661163,-0.2560265362262726,0.7842925190925598
c11a1927-7e28-402c-9820-9cb4a207e338,35fa68e6-762d-4e48-934b-b96a1e252d2d,1760610469724769656,-5.00679,2.157211,0.440598,-0.026367,-0.61084,0.81543,2.3520150752848634,-37.44276225788849,112.47004925999536,0.5317465662956238,-0.19451075792312622,-0.2559677064418793,0.7835123538970947
c11a1927-7e28-402c-9820-9cb4a207e338,35fa68e6-762d-4e48-934b-b96a1e252d2d,1760610469732755656,-4.760742,2.765656,-0.230789,-0.030762,-0.603027,0.820312,2.3680322426855063,-37.47982821666684,112.31996040226784,0.5327554941177368,-0.19512403011322021,-0.2558938264846802,0.7826982140541077
c11a1927-7e28-402c-9820-9cb4a207e338,35fa68e6-762d-4e48-934b-b96a1e252d2d,1760610469743430656,-4.943848,3.253937,-0.658035,-0.025879,-0.628906,0.812012,2.391279182534761,-37.52462000586353,112.31294064246609,0.532791793346405,-0.1955024003982544,-0.25608259439468384,0.7825173139572144
c11a1927-7e28-402c-9820-9cb4a207e338,35fa68e6-762d-4e48-934b-b96a1e252d2d,1760610469754105656,-5.00679,3.557205,-1.085281,-0.023926,-0.606934,0.80127,2.4124347138184143,-37.566570161571526,112.23803821303883,0.5332908034324646,-0.19600525498390198,-0.2561453580856323,0.7820309400558472
c11a1927-7e28-402c-9820-9cb4a207e338,35fa68e6-762d-4e48-934b-b96a1e252d2d,1760610469764780656,-5.495071,3.679276,-1.268387,-0.026855,-0.617676,0.815918,2.4354449113344954,-37.61108985786905,112.08978491794629,0.534290075302124,-0.19669654965400696,-0.25609076023101807,0.7811927199363708
c11a1927-7e28-402c-9820-9cb4a207e338,35fa68e6-762d-4e48-934b-b96a1e252d2d,1760610469775447656,-5.126953,2.70462,-1.451492,-0.03125,-0.617676,0.805176,2.450553694982777,-37.6568798505356,111.95959803933874,0.5351455807685852,-0.19729956984519958,-0.2561115324497223,0.7804479002952576
c11a1927-7e28-402c-9820-9cb4a207e338,35fa68e6-762d-4e48-934b-b96a1e252d2d,1760610469786113656,-5.493164,2.46048,-1.512527,-0.025879,-0.623047,0.813477,2.4620751324824797,-37.705188069070005,111.85825477800019,0.5357921719551086,-0.19782546162605286,-0.2562151253223419,0.779836893081665
c11a1927-7e28-402c-9820-9cb4a207e338,35fa68e6-762d-4e48-934b-b96a1e252d2d,1760610469796779656,-5.126953,2.094269,-1.390457,-0.026367,-0.624512,0.820801,2.4695643312164224,-37.747979284353974,111.71374465637591,0.5367304682731628,-0.19839546084403992,-0.25622421503067017,0.7790434956550598
c11a1927-7e28-402c-9820-9cb4a207e338,35fa68e6-762d-4e48-934b-b96a1e252d2d,1760610469804774656,-4.518509,1.176834,0.074387,-0.021973,-0.632324,0.803711,2.480153533424441,-37.833645805651464,111.40469801231643,0.5387294292449951,-0.1995517462491989,-0.2562255561351776,0.7773661613464355
c11a1927-7e28-402c-9820-9cb4a207e338,35fa68e6-762d-4e48-934b-b96a1e252d2d,1760610469812768656,-4.882812,1.605988,0.013351,-0.006348,-0.621582,0.796875,2.4804329425754066,-37.87708570737809,111.26555719830216,0.5396105647087097,-0.2000647783279419,-0.2562791705131531,0.7766051292419434
c11a1927-7e28-402c-9820-9cb4a207e338,35fa68e6-762d-4e48-934b-b96a1e252d2d,1760610469820762656,-5.678177,2.580643,0.501633,-0.010254,-0.625977,0.79248,2.4969911463829595,-37.93003218540459,111.13272111436245,0.5404704809188843,-0.2007182240486145,-0.2563311755657196,0.7758209109306335
c11a1927-7e28-402c-9820-9cb4a207e338,35fa68e6-762d-4e48-934b-b96a1e252d2d,1760610469828756656,-6.408691,3.437042,0.623703,-0.027832,-0.632812,0.786133,2.530654290846163,-37.98880202782032,111.00097207856078,0.5413516759872437,-0.20151208341121674,-0.2563428580760956,0.7749965190887451
c11a1927-7e28-402c-9820-9cb4a207e338,35fa68e6-762d-4e48-934b-b96a1e252d2d,1760610469839431656,-6.958008,4.535675,1.234055,-0.026855,-0.644043,0.790527,2.573831069031124,-38.05686323259168,110.92158434475746,0.5418856739997864,-0.2022962123155594,-0.2564639151096344,0.7743787169456482
c11a1927-7e28-402c-9820-9cb4a207e338,35fa68e6-762d-4e48-934b-b96a1e252d2d,1760610469850106656,-7.202148,4.718781,1.478195,-0.040527,-0.656738,0.802734,2.6276257288177756,-38.12546390943758,110.9173885294238,0.5419343113899231,-0.20298618078231812,-0.25667062401771545,0.7740955948829651
c11a1927-7e28-402c-9820-9cb4a207e338,35fa68e6-762d-4e48-934b-b96a1e252d2d,1760610469860781656,-6.83403,4.472733,2.454758,-0.047852,-0.649414,0.810059,2.690953995367787,-38.19068295324913,110.82677437212806,0.5425927639007568,-0.20391826331615448,-0.25665533542633057,0.7733941078186035
c11a1927-7e28-402c-9820-9cb4a207e338,35fa68e6-762d-4e48-934b-b96a1e252d2d,1760610469871439656,-7.143021,4.472733,2.576828,-0.049805,-0.655762,0.800781,2.756400445882187,-38.26348541199486,110.74146547750827,0.5432084798812866,-0.20488762855529785,-0.2566898465156555,0.772693932056427
c11a1927-7e28-402c-9820-9cb4a207e338,35fa68e6-762d-4e48-934b-b96a1e252d2d,1760610469882099656,-6.896973,4.47464,2.943039,-0.058594,-0.646973,0.813477,2.8288591208016274,-38.3240710806686,110.68091482944007,0.5436903834342957,-0.20579203963279724,-0.2566508948802948,0.7721273899078369
c11a1927-7e28-402c-9820-9cb4a207e338,35fa68e6-762d-4e48-934b-b96a1e252d2d,1760610469892759656,-5.981445,4.230499,3.43132,-0.061523,-0.651367,0.803223,2.904219385535881,-38.37966559231955,110.58398062548108,0.5444307327270508,-0.2067740261554718,-0.2564975619316101,0.7713939547538757
c11a1927-7e28-402c-9820-9cb4a207e338,35fa68e6-762d-4e48-934b-b96a1e252d2d,1760610469903428656,-5.554199,2.948761,4.285812,-0.084961,-0.652832,0.800293,3.0557234681496483,-38.485727298692964,110.44503154700585,0.5455494523048401,-0.2085953950881958,-0.2562476396560669,0.7701953053474426
c11a1927-7e28-402c-9820-9cb4a207e338,35fa68e6-762d-4e48-934b-b96a1e252d2d,1760610469914099656,-5.249023,2.094269,4.835129,-0.08252,-0.648926,0.809082,3.1301348863835905,-38.530153488135824,110.41480926865975,0.5458540916442871,-0.20936885476112366,-0.2561406195163727,0.7698051333427429
c11a1927-7e28-402c-9820-9cb4a207e338,35fa68e6-762d-4e48-934b-b96a1e252d2d,1760610469924770656,-5.737305,1.544952,5.567551,-0.08252,-0.646484,0.799805,3.208532907702001,-38.57839894165645,110.41839513626387,0.5459349751472473,-0.21011093258857727,-0.25610214471817017,0.7695583701133728
c11a1927-7e28-402c-9820-9cb4a207e338,35fa68e6-762d-4e48-934b-b96a1e252d2d,1760610469932861656,-5.983353,0.749588,6.299973,-0.07373,-0.649902,0.802246,3.2806363732113297,-38.628338237253914,110.37495330224903,0.5463151335716248,-0.21092340350151062,-0.25601863861083984,0.769093930721283
c11a1927-7e28-402c-9820-9cb4a207e338,35fa68e6-762d-4e48-934b-b96a1e252d2d,1760610469940955656,-6.166458,0.078201,6.727219,-0.07373,-0.663574,0.808594,3.349460797571849,-38.67943546212301,110.37540245746162,0.5463916659355164,-0.21162085235118866,-0.2560390830039978,0.7688411474227905
c11a1927-7e28-402c-9820-9cb4a207e338,35fa68e6-762d-4e48-934b-b96a1e252d2d,1760610469949049656,-5.79834,0.019073,6.849289,-0.05127,-0.655273,0.817871,3.412295615491457,-38.7303182434625,110.43681558071425,0.546046257019043,-0.21214058995246887,-0.2561994791030884,0.7688899040222168
c11a1927-7e28-402c-9820-9cb4a207e338,35fa68e6-762d-4e48-934b-b96a1e252d2d,1760610469957143656,-5.189896,-0.41008,7.09343,-0.0625,-0.657227,0.830566,3.469098172493741,-38.77490526220835,110.42381434960313,0.546195924282074,-0.21275687217712402,-0.256208211183548,0.7686102986335754
c11a1927-7e28-402c-9820-9cb4a207e338,35fa68e6-762d-4e48-934b-b96a1e252d2d,1760610469967696656,-4.701614,-0.715256,6.788254,-0.068359,-0.645508,0.810547,3.522985659436843,-38.810998714070486,110.38658796780528,0.5465137958526611,-0.21336829662322998,-0.2561277449131012,0.7682415843009949
c11a1927-7e28-402c-9820-9cb4a207e338,35fa68e6-762d-4e48-934b-b96a1e252d2d,1760610469978249656,-4.030228,-1.081467,6.910324,-0.060547,-0.646484,0.821289,3.572388972461692,-38.84340835400784,110.3294366120446,0.5469603538513184,-0.21397696435451508,-0.25600600242614746,0.7677949666976929
c11a1927-7e28-402c-9820-9cb4a207e338,35fa68e6-762d-4e48-934b-b96a1e252d2d,1760610469988802656,-2.929688,-1.750946,6.238937,-0.055176,-0.641602,0.806152,3.612904311723964,-38.86451352679549,110.26513793376226,0.5474510192871094,-0.21448959410190582,-0.2558358907699585,0.7673587799072266
c11a1927-7e28-402c-9820-9cb4a207e338,35fa68e6-762d-4e48-934b-b96a1e252d2d,1760610469999460656,-1.77002,-3.154755,6.177902,-0.057617,-0.643555,0.800781,3.6642825581646523,-38.89452758490051,110.14719739964805,0.5483116507530212,-0.2152356058359146,-0.2555731534957886,0.7666226625442505
c11a1927-7e28-402c-9820-9cb4a207e338,35fa68e6-762d-4e48-934b-b96a1e252d2d,1760610470010118656,-1.831055,-3.21579,5.933762,-0.046875,-0.647461,0.805664,3.682411141565054,-38.90793728665823,110.1049204513555,0.5486154556274414,-0.21551327407360077,-0.2554980516433716,0.7663522958755493
c11a1927-7e28-402c-9820-9cb4a207e338,35fa68e6-762d-4e48-934b-b96a1e252d2d,1760610470020776656,-2.075195,-3.45993,6.361008,-0.052734,-0.650879,0.817871,3.697336691573045,-38.918785123339,110.06731094694179,0.5488845109939575,-0.21574720740318298,-0.2554295063018799,0.7661166191101074
c11a1927-7e28-402c-9820-9cb4a207e338,35fa68e6-762d-4e48-934b-b96a1e252d2d,1760610470028765656,-1.647949,-3.032684,6.299973,-0.030762,-0.642578,0.82373,3.709453588501253,-38.92385851808246,110.01352039652564,0.5492637157440186,-0.21597158908843994,-0.25530457496643066,0.765823245048523
c11a1927-7e28-402c-9820-9cb4a207e338,35fa68e6-762d-4e48-934b-b96a1e252d2d,1760610470036752656,-0.976562,-2.910614,5.933762,-0.045898,-0.650391,0.82373,3.716281113757885,-38.92427938399363,109.98156106874586,0.5494918823242188,-0.2160903662443161,-0.2552144527435303,0.765656054019928
c11a1927-7e28-402c-9820-9cb4a207e338,35fa68e6-762d-4e48-934b-b96a1e252d2d,1760610470044739656,0.0,-2.422333,5.44548,-0.01416,-0.636719,0.818848,3.723602234777137,-38.91563173860387,109.98339606378181,0.5495084524154663,-0.21609507501125336,-0.2551240921020508,0.7656729221343994
c11a1927-7e28-402c-9820-9cb4a207e338,35fa68e6-762d-4e48-934b-b96a1e252d2d,1760610470052726656,1.03569,-2.241135,4.896164,-0.008789,-0.640137,0.821777,3.713928880882077,-38.90014592332945,109.92943796330194,0.5498698353767395,-0.21607863903045654,-0.25496360659599304,0.7654715776443481
c11a1927-7e28-402c-9820-9cb4a207e338,35fa68e6-762d-4e48-934b-b96a1e252d2d,1760610470063499656,1.647949,-2.239227,3.797531,-0.005859,-0.637695,0.817383,3.6988419811773565,-38.87577532302339,109.80707668430436,0.5506887435913086,-0.21613669395446777,-0.2546399235725403,0.764974057674408
c11a1927-7e28-402c-9820-9cb4a207e338,35fa68e6-762d-4e48-934b-b96a1e252d2d,1760610470074272656,1.832962,-1.752853,2.454758,0.009277,-0.617676,0.819824,3.6723171989236567,-38.8488489135994,109.65801125176733,0.5516636967658997,-0.21616531908512115,-0.2543037533760071,0.7643750905990601
c11a1927-7e28-402c-9820-9cb4a207e338,35fa68e6-762d-4e48-934b-b96a1e252d2d,1760610470085045656,1.707077,-1.264572,0.623703,0.014648,-0.622559,0.808105,3.6319625846691643,-38.82061046681462,109.50674314525246,0.552623987197876,-0.21609994769096375,-0.2540215849876404,0.7637935280799866
c11a1927-7e28-402c-9820-9cb4a207e338,35fa68e6-762d-4e48-934b-b96a1e252d2d,1760610470095611656,1.344681,-0.28801,-3.892899,0.0,-0.617676,0.803223,3.5194599022273647,-38.77755760717881,109.18988858642099,0.5545481443405151,-0.21585094928741455,-0.2536766529083252,0.7625830173492432
c11a1927-7e28-402c-9820-9cb4a207e338,35fa68e6-762d-4e48-934b-b96a1e252d2d,1760610470106178656,1.281738,0.44632,-6.212234,0.018066,-0.617676,0.812988,3.444860257477787,-38.755724399603956,109.01640028167917,0.5555692911148071,-0.21563607454299927,-0.25356391072273254,0.7619377374649048
c11a1927-7e28-402c-9820-9cb4a207e338,35fa68e6-762d-4e48-934b-b96a1e252d2d,1760610470116745656,0.547409,1.176834,-9.508133,0.012207,-0.598145,0.808594,3.360134681419034,-38.74094670203458,108.8473317752326,0.5565274357795715,-0.21537742018699646,-0.25355738401412964,0.7613135576248169
c11a1927-7e28-402c-9820-9cb4a207e338,35fa68e6-762d-4e48-934b-b96a1e252d2d,1760610470127430656,-0.244141,1.422882,-11.339188,-0.007324,-0.600098,0.787598,3.2666545282521473,-38.74142514821768,108.62213778225808,0.5578150749206543,-0.21525730192661285,-0.25359198451042175,0.7603931427001953
c11a1927-7e28-402c-9820-9cb4a207e338,35fa68e6-762d-4e48-934b-b96a1e252d2d,1760610470138115656,-0.915527,1.605988,-12.987137,-0.021973,-0.605957,0.78418,3.1722969879086325,-38.74266877289688,108.33208160101493,0.559527575969696,-0.21527938544750214,-0.25351548194885254,0.7591531872749329
c11a1927-7e28-402c-9820-9cb4a207e338,35fa68e6-762d-4e48-934b-b96a1e252d2d,1760610470148800656,-1.953125,1.789093,-14.08577,-0.031738,-0.605957,0.783691,3.077455387752353,-38.75514732682644,108.10233533502972,0.5608198642730713,-0.21521927416324615,-0.2536313235759735,0.7581773400306702
c11a1927-7e28-402c-9820-9cb4a207e338,35fa68e6-762d-4e48-934b-b96a1e252d2d,1760610470156798656,-3.295898,2.46048,-14.574051,-0.039062,-0.604004,0.782227,2.9017896014918287,-38.79720163824501,107.5869027291026,0.5637716054916382,-0.21540121734142303,-0.2538064122200012,0.7558744549751282
c11a1927-7e28-402c-9820-9cb4a207e338,35fa68e6-762d-4e48-934b-b96a1e252d2d,1760610470164795656,-3.662109,2.399445,-14.024734,-0.05127,-0.612793,0.786133,2.8326267614594705,-38.825707999467554,107.33847055619272,0.5652117133140564,-0.21563276648521423,-0.2538702189922333,0.7547106146812439
c11a1927-7e28-402c-9820-9cb4a207e338,35fa68e6-762d-4e48-934b-b96a1e252d2d,1760610470172792656,-3.541946,2.702713,-13.109207,-0.053223,-0.611816,0.791992,2.771496539864967,-38.85390806333722,107.1149593315676,0.5665033459663391,-0.2158617228269577,-0.2539392411708832,0.7536527514457703
c11a1927-7e28-402c-9820-9cb4a207e338,35fa68e6-762d-4e48-934b-b96a1e252d2d,1760610470180789656,-3.847122,2.336502,-12.071609,-0.0625,-0.610352,0.801758,2.727790737208034,-38.881953236992516,106.9293808568463,0.5675823092460632,-0.2161213606595993,-0.25399237871170044,0.7527481317520142
c11a1927-7e28-402c-9820-9cb4a207e338,35fa68e6-762d-4e48-934b-b96a1e252d2d,1760610470191445656,-4.152298,2.824783,-10.728836,-0.057617,-0.622559,0.80127,2.688870899559781,-38.91169592384392,106.72100430025809,0.5688170790672302,-0.21647195518016815,-0.25398972630500793,0.7517154812812805
c11a1927-7e28-402c-9820-9cb4a207e338,35fa68e6-762d-4e48-934b-b96a1e252d2d,1760610470202101656,-3.90625,2.58255,-9.569168,-0.063965,-0.625,0.800781,2.656240401776513,-38.93922380497355,106.47489091936566,0.570314347743988,-0.21693725883960724,-0.2538691461086273,0.7504866719245911
c11a1927-7e28-402c-9820-9cb4a207e338,35fa68e6-762d-4e48-934b-b96a1e252d2d,1760610470212757656,-3.662109,2.58255,-8.348465,-0.074219,-0.634277,0.806152,2.639264789220133,-38.96369911322843,106.32975912737186,0.5711878538131714,-0.21726693212985992,-0.25384092330932617,0.7497361302375793
c11a1927-7e28-402c-9820-9cb4a207e338,35fa68e6-762d-4e48-934b-b96a1e252d2d,1760610470223444656,-3.664017,1.848221,-6.883621,-0.079102,-0.626953,0.814453,2.6260386827657385,-38.98774236930708,106.1838503037766,0.5720743536949158,-0.21762098371982574,-0.25378918647766113,0.7489746809005737
c11a1927-7e28-402c-9820-9cb4a207e338,35fa68e6-762d-4e48-934b-b96a1e252d2d,1760610470234132656,-3.969193,1.35994,-6.090164,-0.074707,-0.618652,0.812012,2.6174392234545154,-39.01716447586807,106.0121415734295,0.5731298327445984,-0.21808890998363495,-0.25370025634765625,0.7480612397193909
c11a1927-7e28-402c-9820-9cb4a207e338,35fa68e6-762d-4e48-934b-b96a1e252d2d,1760610470244820656,-4.02832,0.812531,-5.235672,-0.062012,-0.617676,0.813477,2.6108942817557588,-39.0402291161578,105.89077990972469,0.5738702416419983,-0.2184278666973114,-0.25365421175956726,0.747409999370575
c11a1927-7e28-402c-9820-9cb4a207e338,35fa68e6-762d-4e48-934b-b96a1e252d2d,1760610470255469656,-3.967285,0.629425,-3.526688,-0.058105,-0.625977,0.800781,2.596266846676649,-39.093775638038686,105.62069531619092,0.5755114555358887,-0.21919317543506622,-0.2535650432109833,0.745952844619751
c11a1927-7e28-402c-9820-9cb4a207e338,35fa68e6-762d-4e48-934b-b96a1e252d2d,1760610470266117656,-4.030228,0.078201,-3.160477,-0.060547,-0.630859,0.79541,2.5876378292561832,-39.12280107492608,105.48270103483722,0.5763432383537292,-0.21958519518375397,-0.2535353899002075,0.7452050447463989
c11a1927-7e28-402c-9820-9cb4a207e338,35fa68e6-762d-4e48-934b-b96a1e252d2d,1760610470276765656,-4.638672,-0.713348,-2.672195,-0.055664,-0.626465,0.778809,2.580854180895074,-39.15856677691043,105.35660877342383,0.577089786529541,-0.2199963480234146,-0.2535630166530609,0.7444962859153748
c11a1927-7e28-402c-9820-9cb4a207e338,35fa68e6-762d-4e48-934b-b96a1e252d2d,1760610470284762656,-4.943848,-1.20163,-1.451492,-0.049316,-0.630859,0.800293,2.5763135379552935,-39.19353476974344,105.24315342076378,0.5777596235275269,-0.2203904688358307,-0.25359776616096497,0.7438480854034424
c11a1927-7e28-402c-9820-9cb4a207e338,35fa68e6-762d-4e48-934b-b96a1e252d2d,1760610470292760656,-5.189896,-2.058029,-0.841141,-0.04541,-0.633301,0.793457,2.5641754015972555,-39.22836880826765,105.1319660584521,0.578397810459137,-0.22073118388652802,-0.25367408990859985,0.7432214617729187
c11a1927-7e28-402c-9820-9cb4a207e338,35fa68e6-762d-4e48-934b-b96a1e252d2d,1760610470300758656,-5.189896,-1.935959,0.135422,-0.041504,-0.644531,0.811035,2.55418708578792,-39.27015989861452,105.02692824408226,0.578988254070282,-0.2211056351661682,-0.2537962794303894,0.7426086664199829
c11a1927-7e28-402c-9820-9cb4a207e338,35fa68e6-762d-4e48-934b-b96a1e252d2d,1760610470308756656,-5.432129,-1.628876,0.867844,-0.047363,-0.650879,0.803223,2.555422797107781,-39.31309100002505,105.03532055072982,0.578866183757782,-0.22130738198757172,-0.2540878355503082,0.7425442934036255
c11a1927-7e28-402c-9820-9cb4a207e338,35fa68e6-762d-4e48-934b-b96a1e252d2d,1760610470319451656,-5.371094,-2.056122,2.027512,-0.053711,-0.651367,0.806641,2.560075843777478,-39.355482417229524,105.03541691478304,0.5788062810897827,-0.2215469628572464,-0.25434255599975586,0.7424325346946716
c11a1927-7e28-402c-9820-9cb4a207e338,35fa68e6-762d-4e48-934b-b96a1e252d2d,1760610470330146656,-5.371094,-2.361298,3.492355,-0.042969,-0.648926,0.809082,2.5754002735695605,-39.39742152195561,105.0070248889752,0.5789552927017212,-0.22191666066646576,-0.25448521971702576,0.7421572208404541
c11a1927-7e28-402c-9820-9cb4a207e338,35fa68e6-762d-4e48-934b-b96a1e252d2d,1760610470340841656,-5.065918,-2.300262,4.346848,-0.058594,-0.642578,0.806641,2.589709762872782,-39.43548502340398,104.96429121135175,0.5792011618614197,-0.22229251265525818,-0.2545796036720276,0.7418206334114075
c11a1927-7e28-402c-9820-9cb4a207e338,35fa68e6-762d-4e48-934b-b96a1e252d2d,1760610470348810656,-4.02832,-1.995087,6.116867,-0.059082,-0.657227,0.802734,2.6539654529225962,-39.49546349210094,104.86672211803669,0.5798764228820801,-0.2232217937707901,-0.254457950592041,0.7410556674003601
c11a1927-7e28-402c-9820-9cb4a207e338,35fa68e6-762d-4e48-934b-b96a1e252d2d,1760610470356779656,-3.967285,-2.056122,7.09343,-0.05127,-0.666016,0.805176,2.695396323293835,-39.528214557619386,104.83358277096985,0.5801287293434143,-0.223725363612175,-0.2543981075286865,0.7407270073890686
c11a1927-7e28-402c-9820-9cb4a207e338,35fa68e6-762d-4e48-934b-b96a1e252d2d,1760610470364748656,-3.601074,-2.422333,8.008957,-0.044922,-0.656738,0.803223,2.7387873978783412,-39.5573342411389,104.80667596048131,0.5803509950637817,-0.22420969605445862,-0.2543164789676666,0.7404345273971558
c11a1927-7e28-402c-9820-9cb4a207e338,35fa68e6-762d-4e48-934b-b96a1e252d2d,1760610470372717656,-3.358841,-2.241135,9.046555,-0.061035,-0.658203,0.801758,2.7959743066625493,-39.582128411331496,104.85153292750437,0.5801472663879395,-0.2246023714542389,-0.2542771100997925,0.7404888272285461
c11a1927-7e28-402c-9820-9cb4a207e338,35fa68e6-762d-4e48-934b-b96a1e252d2d,1760610470383408656,-3.541946,-2.180099,10.023117,-0.048828,-0.656738,0.79248,2.8543247122355515,-39.60775060033402,104.90291379697035,0.5799026489257812,-0.22499215602874756,-0.2542504072189331,0.7405713200569153
c11a1927-7e28-402c-9820-9cb4a207e338,35fa68e6-762d-4e48-934b-b96a1e252d2d,1760610470394099656,-3.540039,-1.995087,10.694504,-0.024902,-0.657715,0.785156,2.9076255167245137,-39.6354246495127,104.94516616786754,0.5797024965286255,-0.2253796011209488,-0.2542451024055481,0.7406121492385864
c11a1927-7e28-402c-9820-9cb4a207e338,35fa68e6-762d-4e48-934b-b96a1e252d2d,1760610470404790656,-3.78418,-2.178192,11.365891,-0.037598,-0.659668,0.77832,2.9687682819831482,-39.66627008520932,105.00083563563567,0.5794278979301453,-0.22580352425575256,-0.25424766540527344,0.7406971454620361
c11a1927-7e28-402c-9820-9cb4a207e338,35fa68e6-762d-4e48-934b-b96a1e252d2d,1760610470415437656,-4.150391,-2.178192,11.487961,-0.028809,-0.655762,0.782715,3.0267458640947567,-39.698266404124105,105.06549256985315,0.5790863633155823,-0.22619260847568512,-0.25429195165634155,0.7408304214477539
c11a1927-7e28-402c-9820-9cb4a207e338,35fa68e6-762d-4e48-934b-b96a1e252d2d,1760610470426085656,-4.209518,-2.729416,11.365891,-0.008301,-0.634277,0.788086,3.0795722225316324,-39.730480815654886,105.0845068827327,0.5790281891822815,-0.2266506403684616,-0.254273921251297,0.7407421469688416
c11a1927-7e28-402c-9820-9cb4a207e338,35fa68e6-762d-4e48-934b-b96a1e252d2d,1760610470436733656,-4.455566,-2.300262,11.182785,-0.000977,-0.661133,0.786621,3.1244339075051766,-39.76183313144515,105.0983210298042,0.5789874196052551,-0.2270643413066864,-0.25428029894828796,0.7406452298164368
c11a1927-7e28-402c-9820-9cb4a207e338,35fa68e6-762d-4e48-934b-b96a1e252d2d,1760610470447409656,-4.335403,-1.874924,10.511398,-0.017578,-0.668457,0.791504,3.217970236790365,-39.834138972089875,105.15172602609115,0.5787323713302612,-0.22790606319904327,-0.25438833236694336,0.7405491471290588
c11a1927-7e28-402c-9820-9cb4a207e338,35fa68e6-762d-4e48-934b-b96a1e252d2d,1760610470458084656,-4.518509,-1.691818,10.145187,-0.013672,-0.662109,0.783691,3.2659632207690543,-39.86960599091592,105.1842688377047,0.578571081161499,-0.22831828892230988,-0.25444358587265015,0.7405292987823486
c11a1927-7e28-402c-9820-9cb4a207e338,35fa68e6-762d-4e48-934b-b96a1e252d2d,1760610470468759656,-4.333496,-1.3237,9.656906,-0.016602,-0.665039,0.786621,3.3094027042987593,-39.906580838055575,105.21243077886768,0.5784256458282471,-0.2287180870771408,-0.25452321767807007,0.7404922246932983
c11a1927-7e28-402c-9820-9cb4a207e338,35fa68e6-762d-4e48-934b-b96a1e252d2d,1760610470479437656,-4.211426,-1.689911,9.168625,-0.036133,-0.65332,0.782715,3.355406543252336,-39.94023907606759,105.26992473847623,0.5781018137931824,-0.2290528565645218,-0.25462695956230164,0.7406060099601746
c11a1927-7e28-402c-9820-9cb4a207e338,35fa68e6-762d-4e48-934b-b96a1e252d2d,1760610470490117656,-4.394531,-1.506805,9.046555,-0.024902,-0.666992,0.787598,3.4032732969521295,-39.97275213418897,105.36604512145199,0.5775343179702759,-0.22930799424648285,-0.2547914683818817,0.7409132719039917
c11a1927-7e28-402c-9820-9cb4a207e338,35fa68e6-762d-4e48-934b-b96a1e252d2d,1760610470500797656,-4.335403,-1.264572,8.741379,-0.03125,-0.654785,0.806152,3.445917954957829,-40.00712856223202,105.3634301409749,0.5775905847549438,-0.2297578901052475,-0.2547972500324249,0.7407280206680298
c11a1927-7e28-402c-9820-9cb4a207e338,35fa68e6-762d-4e48-934b-b96a1e252d2d,1760610470508775656,-4.272461,0.263214,6.788254,-0.01416,-0.668457,0.793457,3.5315602753930135,-40.073245273685146,105.36723667276856,0.5776498317718506,-0.23062656819820404,-0.2548077702522278,0.7404083013534546
c11a1927-7e28-402c-9820-9cb4a207e338,35fa68e6-762d-4e48-934b-b96a1e252d2d,1760610470516751656,-3.78418,0.812531,5.933762,-0.016113,-0.666504,0.803711,3.568715092492634,-40.099942292142174,105.3172908274166,0.5780120491981506,-0.23110827803611755,-0.25469523668289185,0.7400140762329102
c11a1927-7e28-402c-9820-9cb4a207e338,35fa68e6-762d-4e48-934b-b96a1e252d2d,1760610470524727656,-3.721237,0.383377,4.957199,-0.039551,-0.644531,0.814941,3.6082620690923273,-40.120984858145455,105.2802114899192,0.5783054232597351,-0.23154900968074799,-0.25455909967422485,0.7396939396858215
c11a1927-7e28-402c-9820-9cb4a207e338,35fa68e6-762d-4e48-934b-b96a1e252d2d,1760610470532703656,-3.358841,0.261307,4.041672,-0.037109,-0.646973,0.805664,3.641659527671732,-40.13536221990115,105.27003709946541,0.5784221291542053,-0.23185758292675018,-0.25446441769599915,0.7395385503768921
c11a1927-7e28-402c-9820-9cb4a207e338,35fa68e6-762d-4e48-934b-b96a1e252d2d,1760610470543404656,-3.175735,-0.41008,3.675461,-0.032715,-0.642578,0.79541,3.6617391182542733,-40.153510945523855,105.2443570617409,0.578603208065033,-0.23213303089141846,-0.25443026423454285,0.7393222451210022
c11a1927-7e28-402c-9820-9cb4a207e338,35fa68e6-762d-4e48-934b-b96a1e252d2d,1760610470554105656,-3.053665,-0.53215,3.30925,-0.051758,-0.642578,0.794434,3.6855683138696644,-40.17370728576541,105.21040883184729,0.5788425803184509,-0.23246100544929504,-0.2543737292289734,0.7390512824058533
c11a1927-7e28-402c-9820-9cb4a207e338,35fa68e6-762d-4e48-934b-b96a1e252d2d,1760610470564806656,-3.967285,-1.44577,3.43132,-0.049316,-0.650391,0.770508,3.7007907497178314,-40.20233593995563,105.15063846757347,0.5792156457901001,-0.23283211886882782,-0.25436341762542725,0.7386455535888672
c11a1927-7e28-402c-9820-9cb4a207e338,35fa68e6-762d-4e48-934b-b96a1e252d2d,1760610470575452656,-4.943848,-2.361298,3.614426,-0.048828,-0.660645,0.773438,3.711642452913206,-40.243283663276344,105.11662399842676,0.5793929100036621,-0.2331782430410385,-0.2545081079006195,0.7383475303649902
c11a1927-7e28-402c-9820-9cb4a207e338,35fa68e6-762d-4e48-934b-b96a1e252d2d,1760610470586099656,-5.554199,-2.788544,3.370285,-0.043945,-0.666504,0.786621,3.7167357884451246,-40.289369223952846,105.11822148319015,0.5793195366859436,-0.23343338072299957,-0.25478798151016235,0.7382279634475708
c11a1927-7e28-402c-9820-9cb4a207e338,35fa68e6-762d-4e48-934b-b96a1e252d2d,1760610470596746656,-5.857468,-2.729416,3.43132,-0.039062,-0.673828,0.774414,3.718761061647451,-40.33662530533238,105.04909127359534,0.5796928405761719,-0.23383183777332306,-0.2549467384815216,0.7377538681030273
c11a1927-7e28-402c-9820-9cb4a207e338,35fa68e6-762d-4e48-934b-b96a1e252d2d,1760610470604746656,-5.678177,-1.874924,3.553391,-0.045898,-0.67334,0.800781,3.731273226010728,-40.42640144924669,104.96107153912025,0.580141544342041,-0.2345486730337143,-0.2552919387817383,0.7370539903640747
c11a1927-7e28-402c-9820-9cb4a207e338,35fa68e6-762d-4e48-934b-b96a1e252d2d,1760610470612746656,-5.311966,-1.386642,3.797531,-0.048828,-0.666016,0.807129,3.744213657466888,-40.46643402717244,104.92477938900286,0.580338716506958,-0.23490922152996063,-0.25541430711746216,0.7367414832115173
c11a1927-7e28-402c-9820-9cb4a207e338,35fa68e6-762d-4e48-934b-b96a1e252d2d,1760610470620746656,-4.882812,-0.957489,3.553391,-0.04248,-0.67334,0.786133,3.7545482510351382,-40.50347306854809,104.87115728141505,0.5806461572647095,-0.23527701199054718,-0.25549447536468506,0.7363539934158325
c11a1927-7e28-402c-9820-9cb4a207e338,35fa68e6-762d-4e48-934b-b96a1e252d2d,1760610470628746656,-4.701614,-0.593185,3.248215,-0.050293,-0.671875,0.776367,3.773951530334333,-40.545096511747694,104.82203273746595,0.5809372067451477,-0.2357156127691269,-0.25556761026382446,0.7359586954116821
c11a1927-7e28-402c-9820-9cb4a207e338,35fa68e6-762d-4e48-934b-b96a1e252d2d,1760610470639436656,-4.821777,-0.530243,3.248215,-0.054199,-0.663574,0.783203,3.795232987088206,-40.58349306750686,104.77807801637252,0.5812042951583862,-0.23613892495632172,-0.25562041997909546,0.7355936765670776
c11a1927-7e28-402c-9820-9cb4a207e338,35fa68e6-762d-4e48-934b-b96a1e252d2d,1760610470650126656,-4.823685,-0.41008,2.698898,-0.048828,-0.664551,0.776367,3.8166921723463987,-40.62222822310534,104.73740390184457,0.5814499855041504,-0.2365577071905136,-0.25568100810050964,0.7352438569068909
c11a1927-7e28-402c-9820-9cb4a207e338,35fa68e6-762d-4e48-934b-b96a1e252d2d,1760610470660816656,-5.189896,-0.104904,3.004074,-0.050781,-0.661621,0.777832,3.8400411020409213,-40.66398308812371,104.6735592717676,0.581843376159668,-0.23705516755580902,-0.25570353865623474,0.7347644567489624
c11a1927-7e28-402c-9820-9cb4a207e338,35fa68e6-762d-4e48-934b-b96a1e252d2d,1760610470671443656,-6.166458,-0.4673,2.698898,-0.052246,-0.663574,0.769531,3.86053563966783,-40.71148186346678,104.63324405938423,0.5820698738098145,-0.2375101000070572,-0.2558263838291168,0.7343952655792236
c11a1927-7e28-402c-9820-9cb4a207e338,35fa68e6-762d-4e48-934b-b96a1e252d2d,1760610470682072656,-6.225586,-0.652313,2.943039,-0.043457,-0.663086,0.760742,3.8796099945652203,-40.76531769105302,104.6300258941144,0.5820449590682983,-0.23790422081947327,-0.25607454776763916,0.7342009544372559
c11a1927-7e28-402c-9820-9cb4a207e338,35fa68e6-762d-4e48-934b-b96a1e252d2d,1760610470692701656,-7.019043,0.141144,2.882004,-0.04541,-0.670898,0.775879,3.903921053090458,-40.82273492842266,104.61704073009989,0.5820884108543396,-0.23837125301361084,-0.25629913806915283,0.733936607837677
c11a1927-7e28-402c-9820-9cb4a207e338,35fa68e6-762d-4e48-934b-b96a1e252d2d,1760610470703390656,-7.446289,-0.530243,3.553391,-0.0625,-0.669922,0.786133,3.9551309526959635,-40.94273834354756,104.57089251777067,0.5823015570640564,-0.2393922507762909,-0.25672635436058044,0.7332856059074402
c11a1927-7e28-402c-9820-9cb4a207e338,35fa68e6-762d-4e48-934b-b96a1e252d2d,1760610470714080656,-6.774902,-0.835419,3.797531,-0.046875,-0.674805,0.791992,3.97667394940807,-40.99992818013224,104.53738789584752,0.582470178604126,-0.23988625407218933,-0.25692006945610046,0.7329223155975342
c11a1927-7e28-402c-9820-9cb4a207e338,35fa68e6-762d-4e48-934b-b96a1e252d2d,1760610470724770656,-5.495071,-0.41008,3.614426,-0.036133,-0.681152,0.802734,3.99032602684575,-41.04263340249927,104.46743588952668,0.5828777551651001,-0.24034038186073303,-0.256982684135437,0.7324273586273193
c11a1927-7e28-402c-9820-9cb4a207e338,35fa68e6-762d-4e48-934b-b96a1e252d2d,1760610470732787656,-4.274368,0.200272,3.18718,-0.054199,-0.666504,0.811035,4.007814662226577,-41.07019437773651,104.40776408056064,0.5832535028457642,-0.24072355031967163,-0.25694870948791504,0.7320088148117065
c11a1927-7e28-402c-9820-9cb4a207e338,35fa68e6-762d-4e48-934b-b96a1e252d2d,1760610470740805656,-2.382278,1.176834,2.637863,-0.048828,-0.669434,0.799316,4.035629743771857,-41.07992284369711,104.37967103975699,0.5834791660308838,-0.2410118132829666,-0.2568114101886749,0.7317829132080078
c11a1927-7e28-402c-9820-9cb4a207e338,35fa68e6-762d-4e48-934b-b96a1e252d2d,1760610470748823656,-1.525879,0.751495,2.698898,-0.045898,-0.644531,0.793457,4.058317988577392,-41.08200301313076,104.39389442569897,0.5834357142448425,-0.24113497138023376,-0.2567393481731415,0.7318025231361389
c11a1927-7e28-402c-9820-9cb4a207e338,35fa68e6-762d-4e48-934b-b96a1e252d2d,1760610470756841656,-1.220703,1.422882,2.088547,-0.053223,-0.658691,0.765625,4.082795027108028,-41.079992916796606,104.38304980488454,0.5835630893707275,-0.2413056492805481,-0.2565787732601166,0.7317010760307312
c11a1927-7e28-402c-9820-9cb4a207e338,35fa68e6-762d-4e48-934b-b96a1e252d2d,1760610470767497656,-1.464844,2.338409,2.027512,-0.041504,-0.649414,0.772949,4.11803935931387,-41.08442372223227,104.34119534509298,0.5839018225669861,-0.2416459619998932,-0.2563398778438568,0.7314026355743408
c11a1927-7e28-402c-9820-9cb4a207e338,35fa68e6-762d-4e48-934b-b96a1e252d2d,1760610470778153656,-2.258301,2.948761,1.844406,-0.069824,-0.646973,0.787109,4.156301445981612,-41.09316303767335,104.33748159010572,0.5839966535568237,-0.24194125831127167,-0.25619396567344666,0.7312809824943542
c11a1927-7e28-402c-9820-9cb4a207e338,35fa68e6-762d-4e48-934b-b96a1e252d2d,1760610470788809656,-2.685547,3.437042,1.783371,-0.043945,-0.654297,0.777344,4.20086665368182,-41.10199009748774,104.31440358118061,0.5842289328575134,-0.24232041835784912,-0.25597551465034485,0.7310469150543213
c11a1927-7e28-402c-9820-9cb4a207e338,35fa68e6-762d-4e48-934b-b96a1e252d2d,1760610470799458656,-2.199173,3.984451,2.149582,-0.071777,-0.661621,0.79248,4.301628448855513,-41.12542794768717,104.17595718989365,0.5852977633476257,-0.2433866262435913,-0.2553204894065857,0.7300673723220825
c11a1927-7e28-402c-9820-9cb4a207e338,35fa68e6-762d-4e48-934b-b96a1e252d2d,1760610470810110656,-1.953125,3.009796,2.149582,-0.071289,-0.649414,0.776367,4.355630913684042,-41.13607857000361,104.11774247887044,0.5857712626457214,-0.2439124882221222,-0.2549900710582733,0.7296279668807983
c11a1927-7e28-402c-9820-9cb4a207e338,35fa68e6-762d-4e48-934b-b96a1e252d2d,1760610470820762656,-1.588821,2.462387,3.065109,-0.087891,-0.648438,0.782227,4.415094567971513,-41.141725687289615,104.0936591421964,0.5860475301742554,-0.24437230825424194,-0.25467145442962646,0.7293637990951538
c11a1927-7e28-402c-9820-9cb4a207e338,35fa68e6-762d-4e48-934b-b96a1e252d2d,1760610470831410656,-1.893997,1.726151,3.553391,-0.088867,-0.658203,0.773438,4.480050722510258,-41.147352669274206,104.09189617789812,0.5861937999725342,-0.24481725692749023,-0.2543720602989197,0.7292017340660095
c11a1927-7e28-402c-9820-9cb4a207e338,35fa68e6-762d-4e48-934b-b96a1e252d2d,1760610470842059656,-1.464844,1.300812,4.224777,-0.09668,-0.668945,0.78125,4.548428300392758,-41.153457932990214,104.11640672644006,0.5861795544624329,-0.24522796273231506,-0.25411441922187805,0.729165256023407
c11a1927-7e28-402c-9820-9cb4a207e338,35fa68e6-762d-4e48-934b-b96a1e252d2d,1760610470852708656,-1.344681,1.176834,4.713058,-0.101074,-0.686523,0.76416,4.6139227862204395,-41.156081884124944,104.1812094645093,0.585908055305481,-0.24551397562026978,-0.253935307264328,0.7293497323989868
c11a1927-7e28-402c-9820-9cb4a207e338,35fa68e6-762d-4e48-934b-b96a1e252d2d,1760610470860723656,-1.281738,0.934601,5.262375,-0.093262,-0.682129,0.775391,4.747918085756429,-41.17347950389815,104.23077898464862,0.5858610272407532,-0.24634245038032532,-0.25346997380256653,0.7292702794075012
c11a1927-7e28-402c-9820-9cb4a207e338,35fa68e6-762d-4e48-934b-b96a1e252d2d,1760610470868740656,-1.342773,0.56839,5.567551,-0.103516,-0.686035,0.76123,4.818026921732913,-41.18309246685576,104.23450675401617,0.585976779460907,-0.24682754278182983,-0.25318220257759094,0.7291132211685181
c11a1927-7e28-402c-9820-9cb4a207e338,35fa68e6-762d-4e48-934b-b96a1e252d2d,1760610470876757656,-1.039505,0.383377,5.628586,-0.100586,-0.680664,0.782227,4.887649044482122,-41.18800389881516,104.2308569845421,0.58614581823349,-0.24730265140533447,-0.2528502941131592,0.7289314866065979
c11a1927-7e28-402c-9820-9cb4a207e338,35fa68e6-762d-4e48-934b-b96a1e252d2d,1760610470884774656,-0.854492,0.019073,5.567551,-0.100098,-0.682617,0.786621,4.9529345291047955,-41.19049550185891,104.21293872775558,0.5863997340202332,-0.24776962399482727,-0.25249382853507996,0.7286921739578247
c11a1927-7e28-402c-9820-9cb4a207e338,35fa68e6-762d-4e48-934b-b96a1e252d2d,1760610470895447656,-0.610352,-0.469208,5.506516,-0.098145,-0.6875,0.775391,5.0110955925481555,-41.19190159820071,104.1966553441954,0.5866290926933289,-0.24818220734596252,-0.2521700859069824,0.7284791469573975
c11a1927-7e28-402c-9820-9cb4a207e338,35fa68e6-762d-4e48-934b-b96a1e252d2d,1760610470906120656,-0.120163,-0.776291,5.506516,-0.099121,-0.68457,0.778809,5.066261319976256,-41.18962165031989,104.18784762225306,0.5868100523948669,-0.24854105710983276,-0.25185367465019226,0.7283204793930054
c11a1927-7e28-402c-9820-9cb4a207e338,35fa68e6-762d-4e48-934b-b96a1e252d2d,1760610470916793656,0.183105,-1.689911,5.262375,-0.104492,-0.681152,0.759766,5.112735391544558,-41.18841487527418,104.21546899445634,0.5867385268211365,-0.2487698495388031,-0.2516677677631378,0.7283642292022705
c11a1927-7e28-402c-9820-9cb4a207e338,35fa68e6-762d-4e48-934b-b96a1e252d2d,1760610470924803656,0.244141,-2.117157,5.506516,-0.11084,-0.691895,0.757812,5.159120289180946,-41.18561444891748,104.23406677572822,0.5867266058921814,-0.2490101158618927,-0.25145238637924194,0.7283661365509033
c11a1927-7e28-402c-9820-9cb4a207e338,35fa68e6-762d-4e48-934b-b96a1e252d2d,1760610470932814656,0.061035,-2.971649,5.872726,-0.106934,-0.683105,0.769043,5.199439543983075,-41.18555202236861,104.22867977434538,0.5868493914604187,-0.24927791953086853,-0.2512338161468506,0.7282509207725525
c11a1927-7e28-402c-9820-9cb4a207e338,35fa68e6-762d-4e48-934b-b96a1e252d2d,1760610470940825656,-0.183105,-3.276825,6.605148,-0.101074,-0.702637,0.762695,5.238734548469523,-41.18270118537227,104.3011936075534,0.586479127407074,-0.2493547648191452,-0.2511717975139618,0.7285442352294922
c11a1927-7e28-402c-9820-9cb4a207e338,35fa68e6-762d-4e48-934b-b96a1e252d2d,1760610470948836656,-0.305176,-3.765106,6.788254,-0.100098,-0.687012,0.761719,5.273817038743187,-41.18745437347337,104.34843750948332,0.5862480998039246,-0.24949759244918823,-0.25112617015838623,0.728696882724762
c11a1927-7e28-402c-9820-9cb4a207e338,35fa68e6-762d-4e48-934b-b96a1e252d2d,1760610470959483656,-0.366211,-3.643036,7.459641,-0.094727,-0.694824,0.779785,5.310002867188974,-41.18986738884684,104.3411738882666,0.5863697528839111,-0.24975544214248657,-0.2509409785270691,0.7285743355751038
c11a1927-7e28-402c-9820-9cb4a207e338,35fa68e6-762d-4e48-934b-b96a1e252d2d,1760610470970130656,-0.610352,-3.154755,7.2155,-0.073242,-0.696777,0.774414,5.345284510510553,-41.19320998874652,104.3441401459845,0.586422860622406,-0.24998964369297028,-0.25078874826431274,0.7285035848617554
c11a1927-7e28-402c-9820-9cb4a207e338,35fa68e6-762d-4e48-934b-b96a1e252d2d,1760610470980777656,0.244141,-2.788544,7.398605,-0.071777,-0.70459,0.773438,5.373635877516942,-41.193356944177424,104.35984357427704,0.5863848328590393,-0.25013625621795654,-0.2506788969039917,0.7285216450691223
c11a1927-7e28-402c-9820-9cb4a207e338,35fa68e6-762d-4e48-934b-b96a1e252d2d,1760610470988798656,0.673294,-2.42424,7.032394,-0.063965,-0.700195,0.785156,5.4043232595737924,-41.19117960446939,104.37078125043817,0.5863858461380005,-0.25029680132865906,-0.25053152441978455,0.7285163402557373
c11a1927-7e28-402c-9820-9cb4a207e338,35fa68e6-762d-4e48-934b-b96a1e252d2d,1760610470996819656,0.854492,-2.178192,6.299973,-0.05127,-0.70459,0.790527,5.427448247436377,-41.179713061017296,104.36371656570603,0.5864993333816528,-0.25040313601493835,-0.25032278895378113,0.7284603714942932
c11a1927-7e28-402c-9820-9cb4a207e338,35fa68e6-762d-4e48-934b-b96a1e252d2d,1760610471004840656,1.77002,-2.178192,5.140305,-0.058594,-0.696289,0.791504,5.440425015811216,-41.166956539424376,104.33033272708626,0.5867599248886108,-0.2504960894584656,-0.2501000165939331,0.7282952070236206
c11a1927-7e28-402c-9820-9cb4a207e338,35fa68e6-762d-4e48-934b-b96a1e252d2d,1760610471012861656,2.258301,-1.3237,4.346848,-0.047852,-0.68457,0.792969,5.450964093661717,-41.142150748794634,104.31576633955927,0.5869144797325134,-0.2504734396934509,-0.24985209107398987,0.728263795375824
c11a1927-7e28-402c-9820-9cb4a207e338,35fa68e6-762d-4e48-934b-b96a1e252d2d,1760610471023511656,2.68364,-1.203537,3.126144,-0.070801,-0.681641,0.791016,5.4529600173259665,-41.114810457756526,104.27156686436767,0.5872426629066467,-0.250448614358902,-0.24956661462783813,0.7281057834625244
c11a1927-7e28-402c-9820-9cb4a207e338,35fa68e6-762d-4e48-934b-b96a1e252d2d,1760610471034161656,2.807617,-1.628876,2.454758,-0.065918,-0.678711,0.783203,5.4536353640531035,-41.089741768982584,104.19450680038558,0.5877730846405029,-0.2504979074001312,-0.2492309957742691,0.7277755737304688
c11a1927-7e28-402c-9820-9cb4a207e338,35fa68e6-762d-4e48-934b-b96a1e252d2d,1760610471044811656,2.990723,-2.178192,1.53923,-0.063477,-0.67041,0.786621,5.441080486226276,-41.0553629465027,104.13830202695475,0.5881568193435669,-0.2503719627857208,-0.24894815683364868,0.7276053428649902
c11a1927-7e28-402c-9820-9cb4a207e338,35fa68e6-762d-4e48-934b-b96a1e252d2d,1760610471055482656,3.417969,-2.666473,-0.352859,-0.068848,-0.658203,0.80127,5.3925205585700375,-40.982937686431384,104.04802210454692,0.5887387990951538,-0.24990490078926086,-0.24852798879146576,0.7274368405342102
c11a1927-7e28-402c-9820-9cb4a207e338,35fa68e6-762d-4e48-934b-b96a1e252d2d,1760610471066154656,3.479004,-2.788544,-1.207352,-0.060547,-0.661133,0.799805,5.350909120992855,-40.94220928965746,103.94560178145143,0.5893630385398865,-0.24966329336166382,-0.24825318157672882,0.7271061539649963
c11a1927-7e28-402c-9820-9cb4a207e338,35fa68e6-762d-4e48-934b-b96a1e252d2d,1760610471076826656,3.660202,-3.217697,-1.451492,-0.054199,-0.654785,0.779297,5.30469315938681,-40.90252357295178,103.82414731907764,0.590095579624176,-0.24943621456623077,-0.24796736240386963,0.7266917824745178
c11a1927-7e28-402c-9820-9cb4a207e338,35fa68e6-762d-4e48-934b-b96a1e252d2d,1760610471084878656,3.78418,-3.032684,-2.550125,-0.061035,-0.650391,0.791992,5.252237025544806,-40.860601560018175,103.70322456228438,0.5908151268959045,-0.24915842711925507,-0.24770154058933258,0.7262929677963257
c11a1927-7e28-402c-9820-9cb4a207e338,35fa68e6-762d-4e48-934b-b96a1e252d2d,1760610471092933656,4.150391,-3.45993,-2.794266,-0.076172,-0.64209,0.793945,5.1972054629451305,-40.81416160528574,103.57420710752007,0.5915874242782593,-0.2488589733839035,-0.2474028766155243,0.7258687019348145
c11a1927-7e28-402c-9820-9cb4a207e338,35fa68e6-762d-4e48-934b-b96a1e252d2d,1760610471100988656,4.089355,-3.887177,-2.855301,-0.069336,-0.63623,0.789062,5.140605282258436,-40.76552222597971,103.43910388250568,0.5923982262611389,-0.24855126440525055,-0.2470857948064804,0.7254207134246826
c11a1927-7e28-402c-9820-9cb4a207e338,35fa68e6-762d-4e48-934b-b96a1e252d2d,1760610471109043656,3.843307,-4.19426,-2.733231,-0.078125,-0.636719,0.779785,5.081904890828831,-40.717189264407985,103.34422302985284,0.5929493308067322,-0.2481445074081421,-0.24686972796916962,0.7251832485198975
c11a1927-7e28-402c-9820-9cb4a207e338,35fa68e6-762d-4e48-934b-b96a1e252d2d,1760610471119680656,3.417969,-4.314423,-2.794266,-0.073242,-0.620117,0.782715,5.026667478185115,-40.67435153392073,103.30895086502889,0.5931220054626465,-0.24765822291374207,-0.24680107831954956,0.7252315878868103
c11a1927-7e28-402c-9820-9cb4a207e338,35fa68e6-762d-4e48-934b-b96a1e252d2d,1760610471130317656,3.295898,-4.741669,-2.48909,-0.068359,-0.62207,0.772949,4.9639531365234735,-40.628144942304374,103.20594882280828,0.5937126874923706,-0.24725341796875,-0.24660345911979675,0.7249535918235779
c11a1927-7e28-402c-9820-9cb4a207e338,35fa68e6-762d-4e48-934b-b96a1e252d2d,1760610471140954656,2.92778,-5.048752,-2.428055,-0.064453,-0.618164,0.78418,4.902428721807034,-40.58755100748044,103.12474962035378,0.5941590666770935,-0.2468368411064148,-0.2464839369058609,0.7247704267501831
c11a1927-7e28-402c-9820-9cb4a207e338,35fa68e6-762d-4e48-934b-b96a1e252d2d,1760610471151573656,2.68364,-5.292892,-1.756668,-0.049805,-0.625488,0.773926,4.766031121968294,-40.5133043323294,102.99153320659931,0.5948276519775391,-0.24589042365550995,-0.2464238405227661,0.7245641350746155
c11a1927-7e28-402c-9820-9cb4a207e338,35fa68e6-762d-4e48-934b-b96a1e252d2d,1760610471162192656,1.647949,-4.802704,-1.390457,-0.047363,-0.625977,0.760742,4.704920048381796,-40.48889183355358,102.89677600228941,0.5953347086906433,-0.2455858439207077,-0.24637986719608307,0.7242658734321594
c11a1927-7e28-402c-9820-9cb4a207e338,35fa68e6-762d-4e48-934b-b96a1e252d2d,1760610471172811656,0.488281,-4.253387,-1.329422,-0.049316,-0.626953,0.76709,4.644792547992786,-40.47599203121837,102.78983083387884,0.5959020853042603,-0.24537129700183868,-0.2463798075914383,0.7238718867301941
c11a1927-7e28-402c-9820-9cb4a207e338,35fa68e6-762d-4e48-934b-b96a1e252d2d,1760610471180816656,0.0,-4.192352,-1.512527,-0.044434,-0.63623,0.775879,4.585827349398325,-40.46128854141912,102.68571856072855,0.5964567065238953,-0.24514904618263245,-0.2463686615228653,0.7234941124916077
c11a1927-7e28-402c-9820-9cb4a207e338,35fa68e6-762d-4e48-934b-b96a1e252d2d,1760610471188822656,-0.917435,-3.400803,-2.000809,-0.039062,-0.619629,0.773438,4.531666341046245,-40.45601755480464,102.58458729060987,0.5969871878623962,-0.24499818682670593,-0.2464003562927246,0.7230967283248901
c11a1927-7e28-402c-9820-9cb4a207e338,35fa68e6-762d-4e48-934b-b96a1e252d2d,1760610471196828656,-1.588821,-3.091812,-1.695633,-0.061035,-0.618164,0.777832,4.480060512536816,-40.45494779446147,102.46835090028684,0.5976111888885498,-0.24491719901561737,-0.2464139610528946,0.722603976726532
c11a1927-7e28-402c-9820-9cb4a207e338,35fa68e6-762d-4e48-934b-b96a1e252d2d,1760610471204834656,-2.624512,-3.520966,-2.061844,-0.040527,-0.626953,0.794922,4.43191968888803,-40.46127804771576,102.37679749620739,0.5980744361877441,-0.2448424994945526,-0.246510311961174,0.7222130298614502
c11a1927-7e28-402c-9820-9cb4a207e338,35fa68e6-762d-4e48-934b-b96a1e252d2d,1760610471215517656,-2.502441,-4.070282,-2.122879,-0.040039,-0.635742,0.783691,4.374319719624064,-40.46877947731059,102.31371787733474,0.5983356237411499,-0.24465309083461761,-0.24672463536262512,0.7219876646995544
c11a1927-7e28-402c-9820-9cb4a207e338,35fa68e6-762d-4e48-934b-b96a1e252d2d,1760610471226200656,-2.382278,-4.068375,-1.878738,-0.038574,-0.633789,0.783203,4.313552246820158,-40.477498564513446,102.17246133262121,0.599079966545105,-0.24461856484413147,-0.24679672718048096,0.7213572263717651
c11a1927-7e28-402c-9820-9cb4a207e338,35fa68e6-762d-4e48-934b-b96a1e252d2d,1760610471236883656,-2.929688,-3.643036,-2.061844,-0.039062,-0.648438,0.790039,4.2509188391975545,-40.4936286726073,102.03719595358594,0.5997694134712219,-0.2445974051952362,-0.24693940579891205,0.720742404460907
c11a1927-7e28-402c-9820-9cb4a207e338,35fa68e6-762d-4e48-934b-b96a1e252d2d,1760610471247501656,-2.502441,-3.276825,-2.916336,-0.03418,-0.644043,0.789062,4.1307308445570925,-40.52547927353276,101.81564960054617,0.6008495688438416,-0.2444811463356018,-0.2473008781671524,0.7197575569152832
c11a1927-7e28-402c-9820-9cb4a207e338,35fa68e6-762d-4e48-934b-b96a1e252d2d,1760610471258119656,-2.744675,-3.400803,-2.733231,-0.037598,-0.633789,0.791992,4.0747652755378665,-40.538637001963465,101.69597497864666,0.6014580726623535,-0.24445490539073944,-0.24742357432842255,0.7192158699035645
c11a1927-7e28-402c-9820-9cb4a207e338,35fa68e6-762d-4e48-934b-b96a1e252d2d,1760610471268737656,-2.441406,-3.21579,-3.221512,-0.035645,-0.651367,0.795898,4.011924099208507,-40.55532937595665,101.54816357309718,0.6022214889526367,-0.24446481466293335,-0.2475452572107315,0.7185314893722534
c11a1927-7e28-402c-9820-9cb4a207e338,35fa68e6-762d-4e48-934b-b96a1e252d2d,1760610471279415656,-2.807617,-2.605438,-3.221512,-0.038086,-0.629395,0.78418,3.9580858313331104,-40.5745461468718,101.41960518315845,0.6028783917427063,-0.24450308084487915,-0.24767707288265228,0.7179219126701355
c11a1927-7e28-402c-9820-9cb4a207e338,35fa68e6-762d-4e48-934b-b96a1e252d2d,1760610471290095656,-3.358841,-3.217697,-2.61116,-0.059082,-0.65332,0.785156,3.9069896958212524,-40.59309733574685,101.32165406635283,0.6033498644828796,-0.24448949098587036,-0.24785563349723816,0.7174687385559082
c11a1927-7e28-402c-9820-9cb4a207e338,35fa68e6-762d-4e48-934b-b96a1e252d2d,1760610471300775656,-3.358841,-3.580093,-2.550125,-0.044434,-0.656738,0.780762,3.8592599781478434,-40.61823379892672,101.24680215738611,0.6036722660064697,-0.24448111653327942,-0.2481079250574112,0.7171130776405334
c11a1927-7e28-402c-9820-9cb4a207e338,35fa68e6-762d-4e48-934b-b96a1e252d2d,1760610471308772656,-3.358841,-3.889084,-2.244949,-0.056641,-0.651855,0.785156,3.7624182676601716,-40.67148929481247,101.15854769609714,0.6039232611656189,-0.24433889985084534,-0.24876995384693146,0.7167207598686218
c11a1927-7e28-402c-9820-9cb4a207e338,35fa68e6-762d-4e48-934b-b96a1e252d2d,1760610471316771656,-3.78418,-4.375458,-1.817703,-0.044922,-0.655762,0.774414,3.707291666606794,-40.69956675748553,101.10375702796549,0.604097843170166,-0.2442569136619568,-0.24912282824516296,0.7164789438247681
c11a1927-7e28-402c-9820-9cb4a207e338,35fa68e6-762d-4e48-934b-b96a1e252d2d,1760610471324770656,-4.030228,-3.763199,-1.695633,-0.052734,-0.668457,0.784668,3.6607155246421867,-40.73199883783013,101.0195767965228,0.6044667363166809,-0.2443150281906128,-0.2493957281112671,0.7160529494285583
c11a1927-7e28-402c-9820-9cb4a207e338,35fa68e6-762d-4e48-934b-b96a1e252d2d,1760610471332769656,-3.723145,-4.070282,-1.268387,-0.039062,-0.659668,0.789551,3.6108048269993978,-40.75827536841325,100.92389417606856,0.6049102544784546,-0.24434632062911987,-0.24962244927883148,0.7155886292457581
c11a1927-7e28-402c-9820-9cb4a207e338,35fa68e6-762d-4e48-934b-b96a1e252d2d,1760610471343439656,-3.78418,-3.826141,-1.207352,-0.023437,-0.65332,0.78418,3.557390115078115,-40.78219016872095,100.83055261921382,0.605334997177124,-0.24433909356594086,-0.24985767900943756,0.7151496410369873
c11a1927-7e28-402c-9820-9cb4a207e338,35fa68e6-762d-4e48-934b-b96a1e252d2d,1760610471354109656,-3.541946,-3.705978,-1.024246,-0.030762,-0.648926,0.773926,3.5133132132986966,-40.80836949446636,100.75236843790674,0.6056810021400452,-0.24436917901039124,-0.2500903308391571,0.7147650122642517
c11a1927-7e28-402c-9820-9cb4a207e338,35fa68e6-762d-4e48-934b-b96a1e252d2d,1760610471364779656,-3.78418,-3.643036,-0.352859,-0.026855,-0.652344,0.777344,3.4715520532646726,-40.8375607470483,100.68028590332665,0.6059882640838623,-0.24441632628440857,-0.25034287571907043,0.7143999338150024
c11a1927-7e28-402c-9820-9cb4a207e338,35fa68e6-762d-4e48-934b-b96a1e252d2d,1760610471375463656,-3.90625,-3.276825,-0.169754,-0.029785,-0.663086,0.757324,3.4320773602286088,-40.86820133248396,100.63311146301803,0.6061422824859619,-0.24443110823631287,-0.25064560770988464,0.7141580581665039
c11a1927-7e28-402c-9820-9cb4a207e338,35fa68e6-762d-4e48-934b-b96a1e252d2d,1760610471386147656,-4.272461,-2.971649,-0.169754,-0.036133,-0.655273,0.766602,3.3981621513013596,-40.90631469918196,100.62245956008678,0.606067419052124,-0.24443934857845306,-0.25104421377182007,0.7140787243843079
c11a1927-7e28-402c-9820-9cb4a207e338,35fa68e6-762d-4e48-934b-b96a1e252d2d,1760610471396831656,-4.760742,-2.666473,0.013351,-0.044922,-0.672363,0.76709,3.3722074506984683,-40.94706504593156,100.58069725667002,0.6061989068984985,-0.24457907676696777,-0.2513509690761566,0.7138113379478455
c11a1927-7e28-402c-9820-9cb4a207e338,35fa68e6-762d-4e48-934b-b96a1e252d2d,1760610471404826656,-5.617142,-2.912521,0.135422,-0.030762,-0.67627,0.760742,3.324581373866104,-41.04585720677434,100.4878610353237,0.606497585773468,-0.2449956238269806,-0.2520310580730438,0.7131747007369995
c11a1927-7e28-402c-9820-9cb4a207e338,35fa68e6-762d-4e48-934b-b96a1e252d2d,1760610471412821656,-5.67627,-2.483368,0.074387,-0.02002,-0.681641,0.770996,3.2932186166095154,-41.09942818664805,100.46602736284417,0.6064698100090027,-0.24512705206871033,-0.25249022245407104,0.7129848599433899
c11a1927-7e28-402c-9820-9cb4a207e338,35fa68e6-762d-4e48-934b-b96a1e252d2d,1760610471420816656,-5.12886,-2.058029,0.379562,-0.035156,-0.681641,0.784668,3.2681592444540204,-41.143564849886566,100.40355464638372,0.6067243814468384,-0.24533575773239136,-0.25276851654052734,0.7125999331474304
c11a1927-7e28-402c-9820-9cb4a207e338,35fa68e6-762d-4e48-934b-b96a1e252d2d,1760610471428811656,-4.943848,-2.056122,0.501633,-0.021484,-0.681152,0.779297,3.241963788013668,-41.18673887425894,100.34202688531145,0.6069718599319458,-0.24553093314170837,-0.2530485689640045,0.7122240662574768
c11a1927-7e28-402c-9820-9cb4a207e338,35fa68e6-762d-4e48-934b-b96a1e252d2d,1760610471439486656,-4.02832,-1.811981,0.379562,-0.022461,-0.686523,0.784668,3.218126623130579,-41.22091283300678,100.28392551480177,0.6072189807891846,-0.2456873059272766,-0.2532663941383362,0.7118829488754272
c11a1927-7e28-402c-9820-9cb4a207e338,35fa68e6-762d-4e48-934b-b96a1e252d2d,1760610471450161656,-3.847122,-1.443863,0.257492,-0.007812,-0.682129,0.785644,3.1894359909441743,-41.25381373830844,100.2227393929084,0.6074764728546143,-0.24581418931484222,-0.25349515676498413,0.7115386128425598
c11a1927-7e28-402c-9820-9cb4a207e338,35fa68e6-762d-4e48-934b-b96a1e252d2d,1760610471460836656,-3.051758,-1.3237,0.257492,-0.032227,-0.684082,0.791016,3.17505878590637,-41.28468240700561,100.16318499421514,0.6077588200569153,-0.24601620435714722,-0.2536385655403137,0.711176872253418
c11a1927-7e28-402c-9820-9cb4a207e338,35fa68e6-762d-4e48-934b-b96a1e252d2d,1760610471468813656,-2.990723,-1.140594,0.196457,-0.026855,-0.693359,0.771484,3.157065516384809,-41.318643611493385,100.08426003106698,0.6081474423408508,-0.2462550401687622,-0.2537789046764374,0.7107118368148804
c11a1927-7e28-402c-9820-9cb4a207e338,35fa68e6-762d-4e48-934b-b96a1e252d2d,1760610471476791656,-3.112793,-0.652313,0.257492,-0.021484,-0.691406,0.766602,3.1442826044396486,-41.348240041852634,100.05169050382825,0.6082676649093628,-0.24640122056007385,-0.25396350026130676,0.7104921936988831
c11a1927-7e28-402c-9820-9cb4a207e338,35fa68e6-762d-4e48-934b-b96a1e252d2d,1760610471484769656,-2.929688,-0.164032,-0.108719,-0.01123,-0.68457,0.773438,3.1331742427927507,-41.379756898143214,99.99838220054401,0.6085165143013,-0.24661393463611603,-0.2541066110134125,0.7101536989212036
c11a1927-7e28-402c-9820-9cb4a207e338,35fa68e6-762d-4e48-934b-b96a1e252d2d,1760610471492747656,-2.687454,0.871658,-0.597,-0.021484,-0.705566,0.782227,3.1189705752936985,-41.410230084700395,99.90408082978317,0.6090140342712402,-0.24689333140850067,-0.25417113304138184,0.7096061110496521
c11a1927-7e28-402c-9820-9cb4a207e338,35fa68e6-762d-4e48-934b-b96a1e252d2d,1760610471502433656,-2.744675,1.176834,-0.902176,-0.020508,-0.70752,0.779297,3.1115445281629763,-41.43713858064886,99.85554933215238,0.6092492341995239,-0.24709492921829224,-0.2542755603790283,0.7092957496643066
c11a1927-7e28-402c-9820-9cb4a207e338,35fa68e6-762d-4e48-934b-b96a1e252d2d,1760610471512119656,-1.953125,1.483917,-1.207352,-0.028809,-0.69873,0.773926,3.1090543358630676,-41.46061411443908,99.79105453663922,0.6096001863479614,-0.24734480679035187,-0.25429752469062805,0.7088983058929443
c11a1927-7e28-402c-9820-9cb4a207e338,35fa68e6-762d-4e48-934b-b96a1e252d2d,1760610471521805656,-1.832962,1.35994,-1.695633,-0.030273,-0.694824,0.770996,3.1051835879161427,-41.48343539170924,99.69493708626496,0.6101444959640503,-0.24765311181545258,-0.25425419211387634,0.7083366513252258
c11a1927-7e28-402c-9820-9cb4a207e338,35fa68e6-762d-4e48-934b-b96a1e252d2d,1760610471531491656,-1.525879,1.483917,-1.634598,-0.039062,-0.693359,0.782715,3.100138709555235,-41.500190192994104,99.59659720474411,0.6107104420661926,-0.24792754650115967,-0.25417381525039673,0.7077807188034058
c11a1927-7e28-402c-9820-9cb4a207e338,35fa68e6-762d-4e48-934b-b96a1e252d2d,1760610471541177656,-1.342773,0.56839,-1.878738,-0.035645,-0.695312,0.782227,3.0911167874584735,-41.5140972237247,99.49991299683845,0.6112620234489441,-0.24815893173217773,-0.2541000545024872,0.7072490453720093
c11a1927-7e28-402c-9820-9cb4a207e338,35fa68e6-762d-4e48-934b-b96a1e252d2d,1760610471550707656,-1.159668,1.056671,-1.756668,-0.051758,-0.692383,0.78125,3.08355337351902,-41.52385807110715,99.42564231297598,0.6116856932640076,-0.24832801520824432,-0.25404083728790283,0.7068439722061157
c11a1927-7e28-402c-9820-9cb4a207e338,35fa68e6-762d-4e48-934b-b96a1e252d2d,1760610471560237656,-0.976562,1.117706,-1.939774,-0.020508,-0.683105,0.780273,3.0813081813082164,-41.53098789057677,99.34460104832833,0.6121674180030823,-0.24853113293647766,-0.25392189621925354,0.7063977122306824
c11a1927-7e28-402c-9820-9cb4a207e338,35fa68e6-762d-4e48-934b-b96a1e252d2d,1760610471569767656,-0.671387,1.728058,-2.122879,-0.025879,-0.677246,0.773438,3.065627192294294,-41.53720755055654,99.23290558145287,0.6128090023994446,-0.24871180951595306,-0.2538019120693207,0.7058272361755371
c11a1927-7e28-402c-9820-9cb4a207e338,35fa68e6-762d-4e48-934b-b96a1e252d2d,1760610471579297656,-0.429153,2.031326,-2.550125,-0.041016,-0.682129,0.774414,3.0592607639674134,-41.54064886151067,99.20773669733755,0.6129435896873474,-0.24874632060527802,-0.2538028955459595,0.7056978344917297
c11a1927-7e28-402c-9820-9cb4a207e338,35fa68e6-762d-4e48-934b-b96a1e252d2d,1760610471588827656,-0.488281,1.789093,-2.48909,-0.021484,-0.67627,0.763672,3.0533010034218435,-41.54543291928128,99.1627897257274,0.6131983399391174,-0.24883414804935455,-0.2537671625614166,0.705458402633667
c11a1927-7e28-402c-9820-9cb4a207e338,35fa68e6-762d-4e48-934b-b96a1e252d2d,1760610471598412656,-0.488281,1.728058,-3.221512,-0.033203,-0.683105,0.782227,3.028166274747151,-41.55020587277566,98.97235959513434,0.6143054366111755,-0.24912598729133606,-0.25351789593696594,0.7044811844825745
c11a1927-7e28-402c-9820-9cb4a207e338,35fa68e6-762d-4e48-934b-b96a1e252d2d,1760610471608000656,-0.488281,2.216339,-3.770828,-0.04248,-0.678223,0.765625,3.0216606227646827,-41.55045935777417,98.87354489992714,0.6148978471755981,-0.2493058741092682,-0.2533394694328308,0.7039647102355957
c11a1927-7e28-402c-9820-9cb4a207e338,35fa68e6-762d-4e48-934b-b96a1e252d2d,1760610471617588656,-0.429153,1.848221,-3.770828,-0.058105,-0.666504,0.774414,3.0180214184730874,-41.54990852777807,98.75235636956057,0.6156349778175354,-0.24954843521118164,-0.2530917823314667,0.7033233046531677
c11a1927-7e28-402c-9820-9cb4a207e338,35fa68e6-762d-4e48-934b-b96a1e252d2d,1760610471627176656,-0.246048,1.543045,-3.648758,-0.049805,-0.672852,0.765137,3.011086513987508,-41.553139642443945,98.64087887290667,0.6162976026535034,-0.24976898729801178,-0.25290635228157043,0.7027311325073242
c11a1927-7e28-402c-9820-9cb4a207e338,35fa68e6-762d-4e48-934b-b96a1e252d2d,1760610471636764656,-0.488281,1.483917,-4.137039,-0.066406,-0.666016,0.774414,3.0090406765365443,-41.554217364876415,98.54852802659612,0.6168572306632996,-0.2499658614397049,-0.25272271037101746,0.702235996723175
c11a1927-7e28-402c-9820-9cb4a207e338,35fa68e6-762d-4e48-934b-b96a1e252d2d,1760610471644816656,-0.917435,0.997543,-3.709793,-0.073242,-0.676758,0.774902,3.01110257585955,-41.5567252449128,98.49653109232958,0.6171756982803345,-0.2501063346862793,-0.25261378288269043,0.7019453048706055
c11a1927-7e28-402c-9820-9cb4a207e338,35fa68e6-762d-4e48-934b-b96a1e252d2d,1760610471652868656,-0.793457,0.324249,-3.709793,-0.068359,-0.668457,0.770996,3.0032502335305544,-41.558107368762556,98.42471724788703,0.6175956130027771,-0.2502238154411316,-0.25250792503356934,0.701572060585022
c11a1927-7e28-402c-9820-9cb4a207e338,35fa68e6-762d-4e48-934b-b96a1e252d2d,1760610471660920656,-0.061035,0.141144,-3.160477,-0.067871,-0.667969,0.779785,2.9990294407134663,-41.55315072556068,98.32646720714327,0.6181968450546265,-0.2503882646560669,-0.2522852122783661,0.7010638117790222
c11a1927-7e28-402c-9820-9cb4a207e338,35fa68e6-762d-4e48-934b-b96a1e252d2d,1760610471668972656,0.366211,-0.652313,-2.977371,-0.055176,-0.685059,0.787598,2.986995709334697,-41.54448975822193,98.25956199722151,0.6185957193374634,-0.25041621923446655,-0.2521500587463379,0.7007505893707275
c11a1927-7e28-402c-9820-9cb4a207e338,35fa68e6-762d-4e48-934b-b96a1e252d2d,1760610471677024656,0.425339,-1.386642,-2.061844,-0.080078,-0.669922,0.789062,2.9768980236875167,-41.52736479452186,98.24890920460449,0.6186710000038147,-0.25029000639915466,-0.2520751655101776,0.7007499933242798
c11a1927-7e28-402c-9820-9cb4a207e338,35fa68e6-762d-4e48-934b-b96a1e252d2d,1760610471685076656,1.096725,-2.54631,-1.756668,-0.07666,-0.666016,0.794922,2.9665882887869257,-41.50975876208317,98.16325990699394,0.6192046999931335,-0.2503219246864319,-0.2518342137336731,0.7003547549247742
c11a1927-7e28-402c-9820-9cb4a207e338,35fa68e6-762d-4e48-934b-b96a1e252d2d,1760610471694620656,1.586914,-3.154755,-0.230789,-0.079102,-0.666016,0.763184,2.9563187782221756,-41.4938126055833,98.07790881229045,0.6197333335876465,-0.2503620386123657,-0.2516041100025177,0.6999562978744507
c11a1927-7e28-402c-9820-9cb4a207e338,35fa68e6-762d-4e48-934b-b96a1e252d2d,1760610471704164656,1.218796,-3.580093,0.318527,-0.083496,-0.661133,0.766113,2.951997989680872,-41.479062963699455,98.00149437424948,0.6202179789543152,-0.2504250109195709,-0.25136885046958923,0.699589729309082
c11a1927-7e28-402c-9820-9cb4a207e338,35fa68e6-762d-4e48-934b-b96a1e252d2d,1760610471713708656,0.79155,-3.889084,1.844406,-0.066406,-0.667969,0.76709,2.9402421283519584,-41.46605772342641,97.95228646822977,0.620516836643219,-0.2503921091556549,-0.2512441873550415,0.6993817687034607
c11a1927-7e28-402c-9820-9cb4a207e338,35fa68e6-762d-4e48-934b-b96a1e252d2d,1760610471723252656,0.610352,-4.436493,2.882004,-0.063965,-0.669434,0.772949,2.9337460968076234,-41.45472037744771,97.92629820295743,0.6206823587417603,-0.2503491938114166,-0.2511521875858307,0.69928377866745
c11a1927-7e28-402c-9820-9cb4a207e338,35fa68e6-762d-4e48-934b-b96a1e252d2d,1760610471732796656,0.12207,-4.619598,3.18718,-0.055176,-0.673828,0.766602,2.926645578042477,-41.448342361161195,97.91606838155977,0.6207411289215088,-0.25029438734054565,-0.2511287033557892,0.6992599368095398
c11a1927-7e28-402c-9820-9cb4a207e338,35fa68e6-762d-4e48-934b-b96a1e252d2d,1760610471742401656,-0.732422,-4.619598,3.736496,-0.029785,-0.666504,0.766113,2.910247817896367,-41.45197475535918,97.93457736756791,0.6205854415893555,-0.25017303228378296,-0.2512804865837097,0.6993868947029114
c11a1927-7e28-402c-9820-9cb4a207e338,35fa68e6-762d-4e48-934b-b96a1e252d2d,1760610471752010656,-0.917435,-4.377365,3.553391,-0.023438,-0.681152,0.774902,2.8932494282259174,-41.45538642005454,97.99509516611697,0.6201723217964172,-0.24995459616184235,-0.25152575969696045,0.6997430920600891
c11a1927-7e28-402c-9820-9cb4a207e338,35fa68e6-762d-4e48-934b-b96a1e252d2d,1760610471761619656,-1.10054,-3.522873,3.492355,-0.021973,-0.684082,0.768555,2.8773000861555422,-41.46336406591109,97.97790906998287,0.6202273368835449,-0.2499372810125351,-0.25162413716316223,0.6996648907661438
c11a1927-7e28-402c-9820-9cb4a207e338,35fa68e6-762d-4e48-934b-b96a1e252d2d,1760610471771228656,-1.22261,-3.034592,2.759933,-0.009766,-0.686035,0.775879,2.8618682241703013,-41.474217538336205,97.96464041959973,0.6202541589736938,-0.24992986023426056,-0.25174611806869507,0.6995994448661804
c11a1927-7e28-402c-9820-9cb4a207e338,35fa68e6-762d-4e48-934b-b96a1e252d2d,1760610471780837656,-1.588821,-2.42424,2.332687,0.004883,-0.684082,0.773926,2.8415892974899526,-41.484280233047144,97.96715269804521,0.6201754212379456,-0.2498539835214615,-0.2519238293170929,0.6996319890022278
c11a1927-7e28-402c-9820-9cb4a207e338,35fa68e6-762d-4e48-934b-b96a1e252d2d,1760610471790423656,-1.10054,-1.691818,0.928879,-0.025879,-0.685547,0.769043,2.80499339533548,-41.50726155900843,97.84637586515348,0.6207889318466187,-0.2500184178352356,-0.25200116634368896,0.6990000009536743
c11a1927-7e28-402c-9820-9cb4a207e338,35fa68e6-762d-4e48-934b-b96a1e252d2d,1760610471800008656,-0.732422,-1.689911,0.257492,-0.013184,-0.683105,0.781738,2.7781571325410788,-41.5139721544929,97.784521333323,0.6210945248603821,-0.25002649426460266,-0.25205323100090027,0.6987065672874451
c11a1927-7e28-402c-9820-9cb4a207e338,35fa68e6-762d-4e48-934b-b96a1e252d2d,1760610471809593656,-0.732422,-1.018524,-0.169754,-0.020508,-0.666504,0.791992,2.762393062408689,-41.509806898186,97.73777544040188,0.6213526725769043,-0.25001099705696106,-0.25201088190078735,0.6984980702400208
c11a1927-7e28-402c-9820-9cb4a207e338,35fa68e6-762d-4e48-934b-b96a1e252d2d,1760610471819178656,-0.120163,-0.593185,-0.597,-0.015625,-0.680176,0.780273,2.7554962190295496,-41.50450668381038,97.71322887579234,0.6214970946311951,-0.2499946653842926,-0.251961886882782,0.6983934044837952
c11a1927-7e28-402c-9820-9cb4a207e338,35fa68e6-762d-4e48-934b-b96a1e252d2d,1760610471828763656,0.547409,-0.162125,-0.658035,-0.029297,-0.682129,0.786621,2.747933346399292,-41.50015578245503,97.65129441953957,0.6218660473823547,-0.2500615119934082,-0.25184082984924316,0.6980848908424377
c11a1927-7e28-402c-9820-9cb4a207e338,35fa68e6-762d-4e48-934b-b96a1e252d2d,1760610471838375656,0.976562,-0.164032,-0.535965,-0.030762,-0.675781,0.79248,2.745619721505246,-41.48922705847501,97.60628353920816,0.6221557259559631,-0.25008800625801086,-0.25168749690055847,0.697873055934906
c11a1927-7e28-402c-9820-9cb4a207e338,35fa68e6-762d-4e48-934b-b96a1e252d2d,1760610471847987656,1.707077,-0.104904,-0.47493,-0.025879,-0.669434,0.788086,2.7336455696600717,-41.46819914610054,97.57835956467662,0.622339129447937,-0.24996417760849,-0.2515614330768585,0.6978002786636353
c11a1927-7e28-402c-9820-9cb4a207e338,35fa68e6-762d-4e48-934b-b96a1e252d2d,1760610471857599656,2.13623,-0.225067,-0.108719,-0.029297,-0.661133,0.781738,2.7274273078183002,-41.44284015981181,97.50597627262444,0.6228139996528625,-0.24994979798793793,-0.25128042697906494,0.6974838376045227
c11a1927-7e28-402c-9820-9cb4a207e338,35fa68e6-762d-4e48-934b-b96a1e252d2d,1760610471867211656,2.197266,0.141144,-0.047684,-0.040527,-0.674316,0.792969,2.730652559791704,-41.41528933152769,97.44189968501689,0.6232630014419556,-0.24996280670166016,-0.25095275044441223,0.6971967220306396
c11a1927-7e28-402c-9820-9cb4a207e338,35fa68e6-762d-4e48-934b-b96a1e252d2d,1760610471876823656,2.563477,0.141144,0.440598,-0.041992,-0.677246,0.778809,2.7352208221156116,-41.38839533181663,97.39372693263567,0.6236168146133423,-0.249952495098114,-0.2506565749645233,0.6969910264015198
