section id,recording id,timestamp [ns],gyro x [deg/s],gyro y [deg/s],gyro z [deg/s],acceleration x [g],acceleration y [g],acceleration z [g],roll [deg],pitch [deg],yaw [deg],quaternion w,quaternion x,quaternion y,quaternion z
370c9b1f-c64f-4767-9b78-02ca171d1de2,5f696041-e836-4b45-a531-91715e25c5e7,1760607916031020672,-1.707077,-0.181198,-1.832962,-0.043457,-0.581543,0.836426,2.0376125195375008,-36.31520718420341,124.65879466989445,0.4461001455783844,-0.15965813398361206,-0.26810169219970703,0.8388235569000244
370c9b1f-c64f-4767-9b78-02ca171d1de2,5f696041-e836-4b45-a531-91715e25c5e7,1760607916039030672,-2.258301,-0.183105,-1.588821,-0.039551,-0.587891,0.831055,2.032610449425813,-36.321797900578446,124.43808150191923,0.447695791721344,-0.16016285121440887,-0.2678617238998413,0.8379533886909485
370c9b1f-c64f-4767-9b78-02ca171d1de2,5f696041-e836-4b45-a531-91715e25c5e7,1760607916047040672,-2.073288,-0.123978,-1.344681,-0.058594,-0.583496,0.821289,2.0345162042857883,-36.33035623371607,124.2595579431896,0.4489953815937042,-0.16062667965888977,-0.26766732335090637,0.8372310996055603
370c9b1f-c64f-4767-9b78-02ca171d1de2,5f696041-e836-4b45-a531-91715e25c5e7,1760607916055050672,-2.315521,-0.061035,-1.10054,-0.043457,-0.578125,0.830078,2.0327746798021518,-36.3392857302069,124.0783893803272,0.45030418038368225,-0.1610712707042694,-0.26748546957969666,0.8365005850791931
370c9b1f-c64f-4767-9b78-02ca171d1de2,5f696041-e836-4b45-a531-91715e25c5e7,1760607916065684672,-2.68364,0.059128,-0.917435,-0.040527,-0.580078,0.832519,2.031455747941029,-36.345774936285444,123.86085531152266,0.4518807828426361,-0.16159416735172272,-0.2672320306301117,0.8356301188468933
370c9b1f-c64f-4767-9b78-02ca171d1de2,5f696041-e836-4b45-a531-91715e25c5e7,1760607916076318672,-2.317429,-0.001907,-0.97847,-0.030762,-0.589844,0.832031,2.030292432065339,-36.355805812213795,123.63598084154984,0.4535054564476013,-0.16214865446090698,-0.2669925391674042,0.8347185850143433
370c9b1f-c64f-4767-9b78-02ca171d1de2,5f696041-e836-4b45-a531-91715e25c5e7,1760607916086952672,-2.195358,-0.181198,-0.673294,-0.053223,-0.588867,0.825195,2.032078314050417,-36.36663826741379,123.41146547767913,0.4551315903663635,-0.1627265363931656,-0.26674655079841614,0.8337992429733276
370c9b1f-c64f-4767-9b78-02ca171d1de2,5f696041-e836-4b45-a531-91715e25c5e7,1760607916094977672,-2.563477,-0.244141,-0.8564,-0.04248,-0.578613,0.837891,2.0357059781986995,-36.375394660286524,123.25779934623614,0.4562475383281708,-0.16314458847045898,-0.26657772064208984,0.8331614136695862
370c9b1f-c64f-4767-9b78-02ca171d1de2,5f696041-e836-4b45-a531-91715e25c5e7,1760607916103002672,-2.622604,-0.001907,-0.795364,-0.033203,-0.584961,0.846191,2.033672016286155,-36.38615579685236,123.09151021724297,0.45743879675865173,-0.16355852782726288,-0.26642748713493347,0.8324748277664185
370c9b1f-c64f-4767-9b78-02ca171d1de2,5f696041-e836-4b45-a531-91715e25c5e7,1760607916111027672,-2.441406,-0.183105,-0.612259,-0.043945,-0.586426,0.849121,2.0313723799100036,-36.3927897264563,122.90074400708836,0.4588108956813812,-0.1640111356973648,-0.26621249318122864,0.8316991329193115
370c9b1f-c64f-4767-9b78-02ca171d1de2,5f696041-e836-4b45-a531-91715e25c5e7,1760607916119052672,-2.317429,-0.246048,-0.8564,-0.038574,-0.582031,0.836426,2.028131297424289,-36.40177024712681,122.76326518239138,0.45979028940200806,-0.16434216499328613,-0.2660940885543823,0.8311306238174438
370c9b1f-c64f-4767-9b78-02ca171d1de2,5f696041-e836-4b45-a531-91715e25c5e7,1760607916127044672,-2.500534,0.123978,-1.039505,-0.020508,-0.587891,0.836426,2.023487241837921,-36.41219062576401,122.60731141253493,0.46089792251586914,-0.16471153497695923,-0.2659648656845093,0.8304851055145264
370c9b1f-c64f-4767-9b78-02ca171d1de2,5f696041-e836-4b45-a531-91715e25c5e7,1760607916135036672,-2.380371,-0.061035,-0.734329,-0.040527,-0.587891,0.831543,2.0222607734699407,-36.42347219133532,122.39123861902358,0.46244683861732483,-0.16524843871593475,-0.2657409608364105,0.8295885920524597
370c9b1f-c64f-4767-9b78-02ca171d1de2,5f696041-e836-4b45-a531-91715e25c5e7,1760607916143028672,-2.68364,-0.429153,-0.97847,-0.038086,-0.575684,0.835938,2.0171128085630543,-36.432102053365384,122.17471750893306,0.46399131417274475,-0.1657472401857376,-0.2655119001865387,0.8286995887756348
370c9b1f-c64f-4767-9b78-02ca171d1de2,5f696041-e836-4b45-a531-91715e25c5e7,1760607916151020672,-3.051758,-0.671387,-0.551224,-0.036621,-0.582031,0.841309,2.0117889614289317,-36.44330123344424,121.97005739697727,0.4654449224472046,-0.1662272810935974,-0.26531851291656494,0.8278497457504272
370c9b1f-c64f-4767-9b78-02ca171d1de2,5f696041-e836-4b45-a531-91715e25c5e7,1760607916161685672,-2.929688,-0.915527,-0.734329,-0.04541,-0.600098,0.845215,2.0096649898097496,-36.45502324492476,121.75242982499563,0.46699729561805725,-0.1667623072862625,-0.26509612798690796,0.8269386887550354
370c9b1f-c64f-4767-9b78-02ca171d1de2,5f696041-e836-4b45-a531-91715e25c5e7,1760607916172350672,-2.68364,-1.283646,-0.8564,-0.041992,-0.594238,0.844238,2.003544633671862,-36.46935288873229,121.54890738525621,0.46843382716178894,-0.16724613308906555,-0.26492851972579956,0.8260817527770996
370c9b1f-c64f-4767-9b78-02ca171d1de2,5f696041-e836-4b45-a531-91715e25c5e7,1760607916183015672,-2.563477,-1.220703,-0.795364,-0.022949,-0.588867,0.839355,1.9862678646442913,-36.480042814735654,121.35962756558902,0.46974483132362366,-0.16760201752185822,-0.26480022072792053,0.8253059387207031
370c9b1f-c64f-4767-9b78-02ca171d1de2,5f696041-e836-4b45-a531-91715e25c5e7,1760607916191016672,-2.258301,-1.403809,-0.368118,-0.039551,-0.583008,0.833008,1.9799285335686483,-36.49028418969026,121.20361104597426,0.4708409607410431,-0.16795800626277924,-0.26467201113700867,0.8246498107910156
370c9b1f-c64f-4767-9b78-02ca171d1de2,5f696041-e836-4b45-a531-91715e25c5e7,1760607916199017672,-1.89209,-1.342773,0.0,-0.036133,-0.587402,0.833984,1.973596647973365,-36.496087650708844,121.03764846251684,0.47201311588287354,-0.16831906139850616,-0.2644965648651123,0.8239620923995972
370c9b1f-c64f-4767-9b78-02ca171d1de2,5f696041-e836-4b45-a531-91715e25c5e7,1760607916207018672,-2.075195,-1.342773,0.059128,-0.041992,-0.575684,0.834961,1.970786847583853,-36.50075740756765,120.84691030518849,0.4733717441558838,-0.16875779628753662,-0.264261394739151,0.8231680393218994
370c9b1f-c64f-4767-9b78-02ca171d1de2,5f696041-e836-4b45-a531-91715e25c5e7,1760607916215019672,-2.195358,-1.405716,0.181198,-0.040527,-0.591309,0.835938,1.9692594710420448,-36.51039871067038,120.67643001511486,0.4745804965496063,-0.16917893290519714,-0.2640860080718994,0.822441577911377
370c9b1f-c64f-4767-9b78-02ca171d1de2,5f696041-e836-4b45-a531-91715e25c5e7,1760607916223018672,-2.258301,-1.159668,0.181198,-0.03418,-0.571289,0.84082,1.9631549369723054,-36.51693719692144,120.53193736529677,0.47559505701065063,-0.16949462890625,-0.2639450132846832,0.8218355178833008
370c9b1f-c64f-4767-9b78-02ca171d1de2,5f696041-e836-4b45-a531-91715e25c5e7,1760607916231017672,-1.829147,-1.283646,0.547409,-0.041504,-0.598633,0.841797,1.961442762454723,-36.523060151445144,120.36735264293499,0.47676342725753784,-0.1698862463235855,-0.2637525796890259,0.8211392164230347
370c9b1f-c64f-4767-9b78-02ca171d1de2,5f696041-e836-4b45-a531-91715e25c5e7,1760607916239016672,-1.953125,-0.915527,0.608444,-0.029297,-0.595215,0.827637,1.9572294425579668,-36.53185073912185,120.18604647558892,0.4780414402484894,-0.1703091412782669,-0.2635643780231476,0.8203686475753784
370c9b1f-c64f-4767-9b78-02ca171d1de2,5f696041-e836-4b45-a531-91715e25c5e7,1760607916247015672,-1.77002,-0.366211,1.096725,-0.023437,-0.583496,0.828125,1.9586671140736638,-36.537965940851706,119.99394922135157,0.47941169142723083,-0.17078609764575958,-0.2633165121078491,0.8195490837097168
370c9b1f-c64f-4767-9b78-02ca171d1de2,5f696041-e836-4b45-a531-91715e25c5e7,1760607916257689672,-1.89209,-0.549316,1.096725,-0.030762,-0.592773,0.82666,1.9673352627598637,-36.5446552113041,119.82095486150745,0.48065993189811707,-0.171272873878479,-0.26307013630867004,0.8187951445579529
370c9b1f-c64f-4767-9b78-02ca171d1de2,5f696041-e836-4b45-a531-91715e25c5e7,1760607916268363672,-1.953125,-0.244141,1.340866,-0.036621,-0.580566,0.827637,1.9756012325837111,-36.550000292264784,119.65381737200728,0.48186594247817993,-0.1717374473810196,-0.2628237009048462,0.8180677890777588
370c9b1f-c64f-4767-9b78-02ca171d1de2,5f696041-e836-4b45-a531-91715e25c5e7,1760607916279037672,-2.134323,0.059128,1.523972,-0.030762,-0.595215,0.832031,1.9881331952636614,-36.56104281047926,119.48797988611963,0.483064204454422,-0.17225265502929688,-0.2626013457775116,0.8173238635063171
370c9b1f-c64f-4767-9b78-02ca171d1de2,5f696041-e836-4b45-a531-91715e25c5e7,1760607916287029672,-2.012253,0.547409,1.462936,-0.029785,-0.591309,0.844727,2.0014224875314186,-36.566159347784414,119.35905143445623,0.48400747776031494,-0.17266391217708588,-0.2623879611492157,0.8167473673820496
370c9b1f-c64f-4767-9b78-02ca171d1de2,5f696041-e836-4b45-a531-91715e25c5e7,1760607916295021672,-1.953125,0.793457,1.462936,-0.039062,-0.575684,0.842285,2.022483310928012,-36.568930169136195,119.28807940704998,0.48455795645713806,-0.1729879379272461,-0.26221179962158203,0.8164088726043701
370c9b1f-c64f-4767-9b78-02ca171d1de2,5f696041-e836-4b45-a531-91715e25c5e7,1760607916303013672,-1.953125,0.793457,1.707077,-0.04248,-0.57959,0.840332,2.0459841188034664,-36.571552008364705,119.12151047647548,0.4857945740222931,-0.17354707419872284,-0.26187923550605774,0.8156617283821106
370c9b1f-c64f-4767-9b78-02ca171d1de2,5f696041-e836-4b45-a531-91715e25c5e7,1760607916311005672,-1.890182,1.03569,1.279831,-0.031738,-0.586914,0.833008,2.066007581291785,-36.576295748872205,118.9630919169708,0.4869614541530609,-0.17407110333442688,-0.2615879476070404,0.8149474263191223
370c9b1f-c64f-4767-9b78-02ca171d1de2,5f696041-e836-4b45-a531-91715e25c5e7,1760607916318999672,-1.77002,1.708984,1.096725,-0.038574,-0.588867,0.826172,2.093329989890958,-36.58270397711334,118.84425339923021,0.4878605604171753,-0.1745631992816925,-0.2613368332386017,0.8143848180770874
370c9b1f-c64f-4767-9b78-02ca171d1de2,5f696041-e836-4b45-a531-91715e25c5e7,1760607916326993672,-1.953125,2.075195,0.547409,-0.036621,-0.592773,0.827148,2.11730124795153,-36.592731682243254,118.68228601276849,0.48905307054519653,-0.17514453828334808,-0.2610592544078827,0.8136334419250488
370c9b1f-c64f-4767-9b78-02ca171d1de2,5f696041-e836-4b45-a531-91715e25c5e7,1760607916334987672,-2.622604,1.829147,0.730515,-0.04541,-0.580078,0.828613,2.145467315066491,-36.60183075834479,118.51558703102556,0.49028873443603516,-0.17576207220554352,-0.2607487142086029,0.8128557801246643
370c9b1f-c64f-4767-9b78-02ca171d1de2,5f696041-e836-4b45-a531-91715e25c5e7,1760607916342981672,-2.073288,1.646042,0.486374,-0.044922,-0.591309,0.825684,2.173033783200782,-36.61205765952307,118.34003804245076,0.49158307909965515,-0.17639963328838348,-0.2604339122772217,0.8120364546775818
370c9b1f-c64f-4767-9b78-02ca171d1de2,5f696041-e836-4b45-a531-91715e25c5e7,1760607916353668672,-2.317429,1.707077,-0.123978,-0.05127,-0.584473,0.852051,2.198557977873272,-36.61600563218767,118.16850980011343,0.4928509593009949,-0.17698660492897034,-0.2600879669189453,0.8112506866455078
370c9b1f-c64f-4767-9b78-02ca171d1de2,5f696041-e836-4b45-a531-91715e25c5e7,1760607916364355672,-1.953125,1.098633,-0.185013,-0.041016,-0.58252,0.847168,2.215244723074367,-36.6181994619656,118.00446152640255,0.4940468668937683,-0.17748604714870453,-0.2597780227661133,0.8105131387710571
370c9b1f-c64f-4767-9b78-02ca171d1de2,5f696041-e836-4b45-a531-91715e25c5e7,1760607916375042672,-0.976562,1.281738,-0.368118,-0.045898,-0.606934,0.827637,2.234037738709638,-36.62250681662841,117.81269090224652,0.4954396188259125,-0.1780715435743332,-0.25943005084991455,0.8096455931663513
370c9b1f-c64f-4767-9b78-02ca171d1de2,5f696041-e836-4b45-a531-91715e25c5e7,1760607916383040672,-1.340866,0.852585,-0.795364,-0.037109,-0.605469,0.834473,2.2421349632396437,-36.627850709692915,117.66016567903634,0.4965283274650574,-0.17849653959274292,-0.2591957449913025,0.8089597821235657
370c9b1f-c64f-4767-9b78-02ca171d1de2,5f696041-e836-4b45-a531-91715e25c5e7,1760607916391038672,-1.586914,0.793457,-0.917435,-0.052734,-0.593262,0.821777,2.252971737028128,-36.631797328095736,117.5787147861454,0.4971226453781128,-0.17877395451068878,-0.2590498626232147,0.8085801601409912
370c9b1f-c64f-4767-9b78-02ca171d1de2,5f696041-e836-4b45-a531-91715e25c5e7,1760607916399036672,-1.953125,0.244141,-1.283646,-0.02832,-0.592773,0.832519,2.2492741431095404,-36.637343247912966,117.40707605525513,0.4983177185058594,-0.17915929853916168,-0.2588372826576233,0.8078269958496094
370c9b1f-c64f-4767-9b78-02ca171d1de2,5f696041-e836-4b45-a531-91715e25c5e7,1760607916407034672,-1.890182,0.059128,-1.649857,-0.05127,-0.583984,0.82959,2.2494794113914747,-36.64441152200966,117.22630180841429,0.49958282709121704,-0.17959900200366974,-0.25860360264778137,0.8070224523544312
370c9b1f-c64f-4767-9b78-02ca171d1de2,5f696041-e836-4b45-a531-91715e25c5e7,1760607916415063672,-2.012253,0.242233,-1.771927,-0.041504,-0.591797,0.833984,2.244942295533191,-36.65361820157099,117.03716994190172,0.5008919835090637,-0.18003305792808533,-0.25839194655418396,0.8061816096305847
370c9b1f-c64f-4767-9b78-02ca171d1de2,5f696041-e836-4b45-a531-91715e25c5e7,1760607916423092672,-2.012253,0.123978,-1.832962,-0.058594,-0.591309,0.839355,2.244887243708356,-36.65912193734739,116.85102515864762,0.5021936297416687,-0.18047578632831573,-0.25813838839530945,0.8053536415100098
370c9b1f-c64f-4767-9b78-02ca171d1de2,5f696041-e836-4b45-a531-91715e25c5e7,1760607916431121672,-1.890182,-0.001907,-2.016068,-0.04541,-0.585449,0.82666,2.2423688239791613,-36.66856175146298,116.66504147921117,0.5034821033477783,-0.18091744184494019,-0.2579230070114136,0.8045186400413513
370c9b1f-c64f-4767-9b78-02ca171d1de2,5f696041-e836-4b45-a531-91715e25c5e7,1760607916439150672,-2.561569,-0.001907,-1.955032,-0.045898,-0.602051,0.832031,2.238416538517175,-36.680364728344564,116.45047262823931,0.5049633383750916,-0.18142330646514893,-0.2576846480369568,0.8035521507263184
370c9b1f-c64f-4767-9b78-02ca171d1de2,5f696041-e836-4b45-a531-91715e25c5e7,1760607916448707672,-2.68364,-0.246048,-1.588821,-0.053711,-0.601074,0.837891,2.2390332576979683,-36.69676728025214,116.26633814994948,0.5062337517738342,-0.18191242218017578,-0.2575058937072754,0.802699089050293
370c9b1f-c64f-4767-9b78-02ca171d1de2,5f696041-e836-4b45-a531-91715e25c5e7,1760607916458264672,-2.561569,-0.307083,-1.039505,-0.055176,-0.597168,0.841797,2.2397343822897677,-36.70675000944408,116.12527996803847,0.5072098970413208,-0.18227744102478027,-0.2573491036891937,0.8020501136779785
370c9b1f-c64f-4767-9b78-02ca171d1de2,5f696041-e836-4b45-a531-91715e25c5e7,1760607916467821672,-2.68364,-0.429153,-0.612259,-0.058105,-0.585938,0.846191,2.2458029599676004,-36.715691892823045,115.95939580954897,0.5083722472190857,-0.18273109197616577,-0.25712108612060547,0.8012837171554565
370c9b1f-c64f-4767-9b78-02ca171d1de2,5f696041-e836-4b45-a531-91715e25c5e7,1760607916477378672,-2.073288,-0.612259,-0.429153,-0.044434,-0.575684,0.845703,2.245497827546536,-36.72180634177836,115.81267095141405,0.5093890428543091,-0.1830846667289734,-0.256931334733963,0.8006178140640259
370c9b1f-c64f-4767-9b78-02ca171d1de2,5f696041-e836-4b45-a531-91715e25c5e7,1760607916486935672,-1.953125,-0.183105,0.303268,-0.057617,-0.578125,0.831055,2.2568936660908214,-36.726579461626315,115.72164809739085,0.5100440382957458,-0.1833890676498413,-0.25676870346069336,0.8001832365989685
370c9b1f-c64f-4767-9b78-02ca171d1de2,5f696041-e836-4b45-a531-91715e25c5e7,1760607916494960672,-2.132416,-0.183105,0.608444,-0.046875,-0.583984,0.84668,2.2667825922932,-36.73029742087103,115.60438557745448,0.5108798146247864,-0.18373696506023407,-0.2565629780292511,0.7996360659599304
370c9b1f-c64f-4767-9b78-02ca171d1de2,5f696041-e836-4b45-a531-91715e25c5e7,1760607916502985672,-2.317429,-0.307083,0.852585,-0.052246,-0.602539,0.832031,2.2812999144722426,-36.7365739579476,115.45008930463695,0.5119801759719849,-0.18421092629432678,-0.2562946081161499,0.7989090085029602
370c9b1f-c64f-4767-9b78-02ca171d1de2,5f696041-e836-4b45-a531-91715e25c5e7,1760607916511010672,-2.378464,-0.429153,0.852585,-0.050781,-0.578613,0.841797,2.2910458341463675,-36.740329830283855,115.2925268566126,0.513094961643219,-0.18464751541614532,-0.2560238242149353,0.7981795072555542
370c9b1f-c64f-4767-9b78-02ca171d1de2,5f696041-e836-4b45-a531-91715e25c5e7,1760607916519035672,-2.563477,-0.732422,1.646042,-0.040039,-0.589844,0.84082,2.3011679309098967,-36.75002552730284,115.1383957895406,0.5141777396202087,-0.18510475754737854,-0.2557978630065918,0.7974489331245422
370c9b1f-c64f-4767-9b78-02ca171d1de2,5f696041-e836-4b45-a531-91715e25c5e7,1760607916527147672,-2.80571,-1.10054,1.829147,-0.030273,-0.587891,0.838379,2.301430219925424,-36.75992167158189,114.97993767507872,0.5152673125267029,-0.18550370633602142,-0.2556098699569702,0.7967128753662109
370c9b1f-c64f-4767-9b78-02ca171d1de2,5f696041-e836-4b45-a531-91715e25c5e7,1760607916535259672,-3.293991,-1.405716,1.646042,-0.04248,-0.589844,0.824707,2.30357682758325,-36.77581270873006,114.81740971871747,0.516380250453949,-0.1859510987997055,-0.2554481625556946,0.7959395051002502
370c9b1f-c64f-4767-9b78-02ca171d1de2,5f696041-e836-4b45-a531-91715e25c5e7,1760607916543371672,-3.293991,-1.283646,2.073288,-0.037109,-0.595215,0.838379,2.3049513612933428,-36.794674363255126,114.6972111699489,0.517192542552948,-0.18631185591220856,-0.2553788125514984,0.7953497767448425
370c9b1f-c64f-4767-9b78-02ca171d1de2,5f696041-e836-4b45-a531-91715e25c5e7,1760607916551483672,-3.417969,-0.793457,1.646042,-0.021973,-0.583008,0.836426,2.3062931400092626,-36.80755442733594,114.63896026384755,0.5175824165344238,-0.1865079253911972,-0.2553681433200836,0.7950536012649536
370c9b1f-c64f-4767-9b78-02ca171d1de2,5f696041-e836-4b45-a531-91715e25c5e7,1760607916561982672,-3.723145,-0.061035,1.585007,-0.033691,-0.561035,0.838379,2.3170689224392986,-36.82005056179853,114.5459820448983,0.5182344913482666,-0.18684513866901398,-0.25525540113449097,0.7945857048034668
370c9b1f-c64f-4767-9b78-02ca171d1de2,5f696041-e836-4b45-a531-91715e25c5e7,1760607916572481672,-3.965378,-0.181198,1.340866,-0.033203,-0.579102,0.819336,2.321643962877417,-36.84121698265417,114.39232724832948,0.5192810297012329,-0.18731285631656647,-0.2551318109035492,0.7938317060470581
370c9b1f-c64f-4767-9b78-02ca171d1de2,5f696041-e836-4b45-a531-91715e25c5e7,1760607916582980672,-4.577637,-0.854492,0.79155,-0.022461,-0.57959,0.79834,2.3197640687956187,-36.86799007395878,114.30497519505384,0.5198455452919006,-0.18761321902275085,-0.25518447160720825,0.793374240398407
370c9b1f-c64f-4767-9b78-02ca171d1de2,5f696041-e836-4b45-a531-91715e25c5e7,1760607916591018672,-5.002975,-1.283646,0.486374,-0.04541,-0.585938,0.792969,2.3178709030179885,-36.90229668122374,114.19393793626587,0.5205632448196411,-0.18799994885921478,-0.25525060296058655,0.7927905917167664
370c9b1f-c64f-4767-9b78-02ca171d1de2,5f696041-e836-4b45-a531-91715e25c5e7,1760607916599056672,-6.040573,-2.443314,0.303268,-0.047363,-0.564941,0.800781,2.308406804642077,-36.940883951761606,114.03239779531084,0.5216066241264343,-0.18846622109413147,-0.25529745221138,0.7919785976409912
370c9b1f-c64f-4767-9b78-02ca171d1de2,5f696041-e836-4b45-a531-91715e25c5e7,1760607916607094672,-7.322311,-3.236771,0.0,-0.047852,-0.564453,0.822754,2.2905588902737777,-36.98256100583837,113.8910450949083,0.5224863290786743,-0.18884390592575073,-0.2554364800453186,0.7912636399269104
370c9b1f-c64f-4767-9b78-02ca171d1de2,5f696041-e836-4b45-a531-91715e25c5e7,1760607916615132672,-7.566452,-3.236771,-0.185013,-0.037598,-0.575195,0.826172,2.2663850869953457,-37.02997164168273,113.75494309745186,0.523306667804718,-0.189192533493042,-0.25565236806869507,0.7905682325363159
370c9b1f-c64f-4767-9b78-02ca171d1de2,5f696041-e836-4b45-a531-91715e25c5e7,1760607916623088672,-7.995605,-2.685547,-0.490189,-0.05957,-0.574707,0.820801,2.2547632436453116,-37.0829161884407,113.64767246828917,0.5239474773406982,-0.18958890438079834,-0.2558964788913727,0.7899696230888367
370c9b1f-c64f-4767-9b78-02ca171d1de2,5f696041-e836-4b45-a531-91715e25c5e7,1760607916631044672,-8.972168,-2.868652,-0.612259,-0.049805,-0.58252,0.817383,2.238171660039496,-37.14639673254564,113.51862140328907,0.5247117280960083,-0.19004762172698975,-0.25619983673095703,0.7892534732818604
370c9b1f-c64f-4767-9b78-02ca171d1de2,5f696041-e836-4b45-a531-91715e25c5e7,1760607916639000672,-9.887695,-2.502441,-0.673294,-0.04834,-0.572266,0.803223,2.2220219721959844,-37.21890963173985,113.35473838538607,0.5257027745246887,-0.19062885642051697,-0.2565051019191742,0.7883541584014893
370c9b1f-c64f-4767-9b78-02ca171d1de2,5f696041-e836-4b45-a531-91715e25c5e7,1760607916649008672,-10.925293,-3.051758,-0.734329,-0.043945,-0.571289,0.818359,2.205027032747637,-37.29842593997165,113.27913375845705,0.5260734558105469,-0.19103913009166718,-0.25700876116752625,0.7878434062004089
370c9b1f-c64f-4767-9b78-02ca171d1de2,5f696041-e836-4b45-a531-91715e25c5e7,1760607916659016672,-11.655807,-2.87056,-0.368118,-0.050781,-0.583496,0.818848,2.1876316691363376,-37.38135534481619,113.18086687806631,0.5265932679176331,-0.19151368737220764,-0.25749945640563965,0.7872204184532166
370c9b1f-c64f-4767-9b78-02ca171d1de2,5f696041-e836-4b45-a531-91715e25c5e7,1760607916669024672,-12.268066,-2.197266,-0.368118,-0.052246,-0.585449,0.833496,2.176931456924042,-37.46760668008538,113.03033272913446,0.5274810194969177,-0.1921677589416504,-0.2578939199447632,0.7863370776176453
370c9b1f-c64f-4767-9b78-02ca171d1de2,5f696041-e836-4b45-a531-91715e25c5e7,1760607916679032672,-11.6539,-2.502441,-0.551224,-0.04248,-0.594238,0.825684,2.1630895844685156,-37.55731565644967,112.91399623583995,0.5281205177307129,-0.19274012744426727,-0.2583828568458557,0.7856069207191467
370c9b1f-c64f-4767-9b78-02ca171d1de2,5f696041-e836-4b45-a531-91715e25c5e7,1760607916687024672,-11.350632,-1.829147,-0.551224,-0.050781,-0.607422,0.828125,2.157247848532498,-37.644573084704135,112.79443335900902,0.5288022756576538,-0.19336462020874023,-0.25881141424179077,0.7848533987998962
370c9b1f-c64f-4767-9b78-02ca171d1de2,5f696041-e836-4b45-a531-91715e25c5e7,1760607916695016672,-11.108398,-1.708984,-0.368118,-0.038086,-0.597656,0.821289,2.1504567155153285,-37.7276224352867,112.64581058599221,0.529685378074646,-0.1940302699804306,-0.2591649293899536,0.7839764952659607
370c9b1f-c64f-4767-9b78-02ca171d1de2,5f696041-e836-4b45-a531-91715e25c5e7,1760607916703008672,-11.045456,-0.97847,0.059128,-0.057129,-0.592285,0.826172,2.1557694630347117,-37.806391226004884,112.5058681576468,0.5305410027503967,-0.19474069774150848,-0.2594462037086487,0.7831283211708069
370c9b1f-c64f-4767-9b78-02ca171d1de2,5f696041-e836-4b45-a531-91715e25c5e7,1760607916711000672,-10.86235,-0.062943,-0.368118,-0.046875,-0.594238,0.835938,2.166280765890715,-37.880589472092474,112.37027295876459,0.5313838720321655,-0.195456862449646,-0.25967785716056824,0.7823011875152588
370c9b1f-c64f-4767-9b78-02ca171d1de2,5f696041-e836-4b45-a531-91715e25c5e7,1760607916721708672,-10.131836,0.061035,-0.062943,-0.043945,-0.608398,0.833008,2.176534582696849,-37.95560765853116,112.25678333473006,0.5320728421211243,-0.19612553715705872,-0.25995275378227234,0.7815739512443542
370c9b1f-c64f-4767-9b78-02ca171d1de2,5f696041-e836-4b45-a531-91715e25c5e7,1760607916732416672,-9.94873,0.244141,-0.368118,-0.049316,-0.615234,0.831543,2.1866833413549305,-38.02765348671172,112.13687367779447,0.5328086018562317,-0.19679516553878784,-0.2601955235004425,0.7808232307434082
370c9b1f-c64f-4767-9b78-02ca171d1de2,5f696041-e836-4b45-a531-91715e25c5e7,1760607916743124672,-9.643555,0.488281,-0.307083,-0.034668,-0.603027,0.814941,2.1971284361892245,-38.10176350776215,112.00463466830446,0.5336248278617859,-0.19750486314296722,-0.26042863726615906,0.7800084948539734
370c9b1f-c64f-4767-9b78-02ca171d1de2,5f696041-e836-4b45-a531-91715e25c5e7,1760607916751096672,-9.519577,0.97847,0.0,-0.041992,-0.616211,0.833008,2.2156083426916044,-38.174980492764,111.9255056434744,0.5340981483459473,-0.19814498722553253,-0.26070863008499146,0.7794284224510193
370c9b1f-c64f-4767-9b78-02ca171d1de2,5f696041-e836-4b45-a531-91715e25c5e7,1760607916759068672,-9.031296,1.03569,0.120163,-0.059082,-0.606445,0.842773,2.241482602776762,-38.23891130518903,111.83746379441173,0.5346618890762329,-0.1988135129213333,-0.2608741223812103,0.7788161039352417
370c9b1f-c64f-4767-9b78-02ca171d1de2,5f696041-e836-4b45-a531-91715e25c5e7,1760607916767040672,-8.300781,0.915527,0.059128,-0.048828,-0.621094,0.837402,2.261378747031336,-38.297218999265155,111.71379468685734,0.5354616045951843,-0.19949710369110107,-0.26096606254577637,0.7780606746673584
370c9b1f-c64f-4767-9b78-02ca171d1de2,5f696041-e836-4b45-a531-91715e25c5e7,1760607916775012672,-7.446289,1.586914,-0.246048,-0.027344,-0.634277,0.823242,2.2814016925981524,-38.35750204819141,111.58439365782941,0.536296546459198,-0.20020398497581482,-0.2610597014427185,0.7772722244262695
370c9b1f-c64f-4767-9b78-02ca171d1de2,5f696041-e836-4b45-a531-91715e25c5e7,1760607916785662672,-7.141113,1.953125,-0.307083,-0.041992,-0.617188,0.821777,2.306117933253807,-38.408005436979394,111.45772068302108,0.5371370315551758,-0.2008918672800064,-0.2610678970813751,0.7765113115310669
370c9b1f-c64f-4767-9b78-02ca171d1de2,5f696041-e836-4b45-a531-91715e25c5e7,1760607916796312672,-6.774902,1.586914,-0.612259,-0.047852,-0.620117,0.820312,2.3234660637068973,-38.45894645962702,111.29806088996283,0.5381823778152466,-0.20160722732543945,-0.2610544264316559,0.775606095790863
370c9b1f-c64f-4767-9b78-02ca171d1de2,5f696041-e836-4b45-a531-91715e25c5e7,1760607916806962672,-6.406784,1.157761,-0.368118,-0.041504,-0.612305,0.814453,2.338755287519849,-38.507389208171276,111.14137747076113,0.5392051339149475,-0.2022906392812729,-0.26103731989860535,0.7747230529785156
370c9b1f-c64f-4767-9b78-02ca171d1de2,5f696041-e836-4b45-a531-91715e25c5e7,1760607916814988672,-5.796432,1.401901,-1.039505,-0.041992,-0.633789,0.817383,2.3507581687525367,-38.553204709039655,110.98724752382518,0.5402056574821472,-0.2029341757297516,-0.2610208988189697,0.7738627791404724
370c9b1f-c64f-4767-9b78-02ca171d1de2,5f696041-e836-4b45-a531-91715e25c5e7,1760607916823014672,-5.857468,1.829147,-1.10054,-0.047363,-0.616699,0.817383,2.360793310053174,-38.596561882613166,110.874089272914,0.5409275889396667,-0.2034599930047989,-0.2610684931278229,0.7732040882110596
370c9b1f-c64f-4767-9b78-02ca171d1de2,5f696041-e836-4b45-a531-91715e25c5e7,1760607916831040672,-5.916595,1.281738,-1.466751,-0.036621,-0.635742,0.810547,2.3699620639544694,-38.64558009041628,110.736818200099,0.5418007969856262,-0.204061359167099,-0.2611149847507477,0.7724181413650513
370c9b1f-c64f-4767-9b78-02ca171d1de2,5f696041-e836-4b45-a531-91715e25c5e7,1760607916839066672,-5.857468,1.157761,-1.344681,-0.052734,-0.629883,0.806641,2.382012466065244,-38.69389482448074,110.57721753189006,0.5428308248519897,-0.2047300934791565,-0.2611020505428314,0.7715218663215637
370c9b1f-c64f-4767-9b78-02ca171d1de2,5f696041-e836-4b45-a531-91715e25c5e7,1760607916847054672,-6.04248,1.342773,-1.588821,-0.051758,-0.635254,0.810547,2.3910273617033444,-38.743720891069856,110.45706109058752,0.5435848832130432,-0.2052958458662033,-0.26118308305740356,0.7708128690719604
370c9b1f-c64f-4767-9b78-02ca171d1de2,5f696041-e836-4b45-a531-91715e25c5e7,1760607916855042672,-6.164551,0.732422,-1.466751,-0.037109,-0.633301,0.828125,2.394552661029718,-38.79399147300657,110.3946669234876,0.543936550617218,-0.20569537580013275,-0.26139599084854126,0.7703859806060791
370c9b1f-c64f-4767-9b78-02ca171d1de2,5f696041-e836-4b45-a531-91715e25c5e7,1760607916863030672,-5.613327,0.795364,-1.771927,-0.046387,-0.647949,0.805176,2.3929031042905957,-38.84221639586035,110.25332584880302,0.5448094606399536,-0.20623107254505157,-0.26147717237472534,0.7695979475975037
370c9b1f-c64f-4767-9b78-02ca171d1de2,5f696041-e836-4b45-a531-91715e25c5e7,1760607916871018672,-4.821777,0.12207,-2.138138,-0.038086,-0.634766,0.825684,2.3872492927664224,-38.878275524218964,110.10161439731046,0.5457600951194763,-0.20670728385448456,-0.26147526502609253,0.7687969207763672
370c9b1f-c64f-4767-9b78-02ca171d1de2,5f696041-e836-4b45-a531-91715e25c5e7,1760607916879010672,-4.150391,0.12207,-2.321243,-0.039062,-0.647949,0.833984,2.377672142714254,-38.905129720129004,109.94800934421521,0.5467272996902466,-0.20711888372898102,-0.2614254951477051,0.768015444278717
370c9b1f-c64f-4767-9b78-02ca171d1de2,5f696041-e836-4b45-a531-91715e25c5e7,1760607916887002672,-3.234863,0.427246,-2.626419,-0.030762,-0.638184,0.822266,2.363313621124787,-38.92572626843844,109.81499434895544,0.5475541353225708,-0.2074224352836609,-0.26139286160469055,0.7673553228378296
370c9b1f-c64f-4767-9b78-02ca171d1de2,5f696041-e836-4b45-a531-91715e25c5e7,1760607916894994672,-2.561569,0.364304,-3.1147,-0.040039,-0.631836,0.809082,2.344152090490362,-38.94141688249811,109.67569429882212,0.5484187602996826,-0.2076854109764099,-0.2613382935523987,0.7666850090026855
370c9b1f-c64f-4767-9b78-02ca171d1de2,5f696041-e836-4b45-a531-91715e25c5e7,1760607916902986672,-2.073288,0.181198,-3.297806,-0.041992,-0.62793,0.817871,2.323382425913903,-38.95538107928591,109.517768829553,0.5494059920310974,-0.20797215402126312,-0.2612456977367401,0.7659316658973694
370c9b1f-c64f-4767-9b78-02ca171d1de2,5f696041-e836-4b45-a531-91715e25c5e7,1760607916913665672,-1.89209,0.244141,-3.969193,-0.030273,-0.614746,0.818359,2.2970944942151714,-38.9627999953645,109.39304173106075,0.550167977809906,-0.20811572670936584,-0.26119545102119446,0.7653626203536987
370c9b1f-c64f-4767-9b78-02ca171d1de2,5f696041-e836-4b45-a531-91715e25c5e7,1760607916924344672,-2.317429,-0.246048,-4.274368,-0.033691,-0.621094,0.815918,2.2695895140634414,-38.975487887470834,109.32660133773763,0.5505293011665344,-0.20814327895641327,-0.2612924575805664,0.7650620937347412
370c9b1f-c64f-4767-9b78-02ca171d1de2,5f696041-e836-4b45-a531-91715e25c5e7,1760607916935023672,-2.620697,-0.366211,-4.823685,-0.026367,-0.627441,0.818848,2.234906382538556,-38.98778149230268,109.17368748702371,0.551451563835144,-0.20831842720508575,-0.26126420497894287,0.7643595933914185
370c9b1f-c64f-4767-9b78-02ca171d1de2,5f696041-e836-4b45-a531-91715e25c5e7,1760607916943030672,-2.441406,0.061035,-5.067825,-0.020996,-0.626465,0.815918,2.200868395078204,-38.99970363535413,109.02028864928697,0.5523781180381775,-0.2084975391626358,-0.26122942566871643,0.7636532783508301
370c9b1f-c64f-4767-9b78-02ca171d1de2,5f696041-e836-4b45-a531-91715e25c5e7,1760607916951037672,-1.953125,0.610352,-5.556107,-0.035156,-0.620117,0.794922,2.169586910735755,-39.009948698805346,108.88372451541818,0.5532004833221436,-0.2086489498615265,-0.2612006664276123,0.763026237487793
370c9b1f-c64f-4767-9b78-02ca171d1de2,5f696041-e836-4b45-a531-91715e25c5e7,1760607916959044672,-2.317429,1.401901,-5.861282,-0.035156,-0.621582,0.782227,2.140295511059561,-39.026346417317924,108.6917536502447,0.5543854832649231,-0.2089693248271942,-0.2611025869846344,0.762111485004425
370c9b1f-c64f-4767-9b78-02ca171d1de2,5f696041-e836-4b45-a531-91715e25c5e7,1760607916967051672,-2.866745,1.829147,-6.410599,-0.041992,-0.620605,0.805664,2.1167018509587496,-39.04515522579507,108.49370319492577,0.555618405342102,-0.20935310423374176,-0.26098155975341797,0.7611491680145264
370c9b1f-c64f-4767-9b78-02ca171d1de2,5f696041-e836-4b45-a531-91715e25c5e7,1760607916975070672,-3.293991,1.829147,-6.77681,-0.03125,-0.632812,0.825684,2.0850079063579745,-39.066871407811334,108.29165162740985,0.5568530559539795,-0.2097063511610031,-0.2609114646911621,0.7601730823516846
370c9b1f-c64f-4767-9b78-02ca171d1de2,5f696041-e836-4b45-a531-91715e25c5e7,1760607916983089672,-2.441406,2.258301,-6.89888,-0.03125,-0.639648,0.824219,2.0582890290909317,-39.083453044668545,108.10343847819111,0.5580136775970459,-0.21003691852092743,-0.26080769300460815,0.7592657804489136
370c9b1f-c64f-4767-9b78-02ca171d1de2,5f696041-e836-4b45-a531-91715e25c5e7,1760607916991108672,-2.012253,2.80571,-6.837845,-0.033203,-0.627441,0.835938,2.0385753330450447,-39.08945610641354,107.93249677639861,0.5590912699699402,-0.21032404899597168,-0.26063036918640137,0.7584540247917175
370c9b1f-c64f-4767-9b78-02ca171d1de2,5f696041-e836-4b45-a531-91715e25c5e7,1760607916999127672,-1.644135,3.356934,-6.532669,-0.055176,-0.629395,0.836426,2.0328513532185872,-39.09396296911829,107.73303947207339,0.5603903532028198,-0.2107612043619156,-0.2603219449520111,0.7574792504310608
370c9b1f-c64f-4767-9b78-02ca171d1de2,5f696041-e836-4b45-a531-91715e25c5e7,1760607917009787672,-0.79155,3.293991,-5.983353,-0.05127,-0.642578,0.814453,2.0327187807108875,-39.09345670075016,107.57825347019181,0.5614135265350342,-0.21110932528972626,-0.2600342929363251,0.7567231059074402
370c9b1f-c64f-4767-9b78-02ca171d1de2,5f696041-e836-4b45-a531-91715e25c5e7,1760607917020447672,-0.059128,3.355026,-5.495071,-0.064941,-0.635742,0.810059,2.0395776632499256,-39.087741117626386,107.49112053393416,0.5620135068893433,-0.21132470667362213,-0.259801983833313,0.7562972903251648
370c9b1f-c64f-4767-9b78-02ca171d1de2,5f696041-e836-4b45-a531-91715e25c5e7,1760607917031107672,0.246048,2.80571,-5.373001,-0.052734,-0.654785,0.825684,2.041605265468978,-39.0802122916705,107.32454800719685,0.5631290078163147,-0.211679145693779,-0.25943446159362793,0.7554941177368164
370c9b1f-c64f-4767-9b78-02ca171d1de2,5f696041-e836-4b45-a531-91715e25c5e7,1760607917039094672,1.220703,2.075195,-4.640579,-0.067383,-0.651367,0.836914,2.04114249859281,-39.06453645786224,107.14726618134908,0.5643213987350464,-0.21200130879878998,-0.25900474190711975,0.7546610832214355
370c9b1f-c64f-4767-9b78-02ca171d1de2,5f696041-e836-4b45-a531-91715e25c5e7,1760607917047081672,1.831055,1.342773,-4.457474,-0.033203,-0.654297,0.838867,2.026680564029837,-39.04227112548932,106.96294611763705,0.5655379295349121,-0.21221448481082916,-0.25858694314956665,0.7538332939147949
370c9b1f-c64f-4767-9b78-02ca171d1de2,5f696041-e836-4b45-a531-91715e25c5e7,1760607917055068672,3.112793,1.159668,-4.457474,-0.044922,-0.651367,0.829102,2.0137949176546224,-39.010449878296434,106.79473814017346,0.5666664242744446,-0.21235442161560059,-0.2581278085708618,0.7531034350395203
370c9b1f-c64f-4767-9b78-02ca171d1de2,5f696041-e836-4b45-a531-91715e25c5e7,1760607917063055672,3.295898,1.77002,-3.725052,-0.060547,-0.640625,0.8125,2.015059584184985,-38.97446413820456,106.65257921576753,0.5676615238189697,-0.2125074863433838,-0.2576194107532501,0.7524846792221069
370c9b1f-c64f-4767-9b78-02ca171d1de2,5f696041-e836-4b45-a531-91715e25c5e7,1760607917073764672,3.78418,2.01416,-3.419876,-0.058594,-0.633789,0.804687,2.020986764616876,-38.93284532773531,106.51975699957727,0.5686142444610596,-0.21264176070690155,-0.25706788897514343,0.7519158124923706
370c9b1f-c64f-4767-9b78-02ca171d1de2,5f696041-e836-4b45-a531-91715e25c5e7,1760607917084473672,3.295898,1.89209,-2.626419,-0.055664,-0.636719,0.806152,2.02895851454333,-38.89801866747445,106.39933929755051,0.5694785118103027,-0.21279384195804596,-0.25657418370246887,0.7513871788978577
370c9b1f-c64f-4767-9b78-02ca171d1de2,5f696041-e836-4b45-a531-91715e25c5e7,1760607917095182672,3.725052,1.340866,-2.199173,-0.052734,-0.619141,0.826172,2.039078468269604,-38.85058624606028,106.29317906533265,0.5702740550041199,-0.2128656506538391,-0.25601282715797424,0.750954806804657
370c9b1f-c64f-4767-9b78-02ca171d1de2,5f696041-e836-4b45-a531-91715e25c5e7,1760607917103146672,4.02832,1.77002,-1.527786,-0.058105,-0.609375,0.835938,2.0551959230377586,-38.79609343506985,106.16298765689616,0.5712513327598572,-0.21299481391906738,-0.25533026456832886,0.7504075765609741
370c9b1f-c64f-4767-9b78-02ca171d1de2,5f696041-e836-4b45-a531-91715e25c5e7,1760607917111110672,4.701614,1.955032,-0.97847,-0.038574,-0.607422,0.825684,2.0682406304601795,-38.73861891179394,106.04745984779385,0.5721299052238464,-0.2130553424358368,-0.25467056035995483,0.7499451041221619
370c9b1f-c64f-4767-9b78-02ca171d1de2,5f696041-e836-4b45-a531-91715e25c5e7,1760607917119074672,4.518509,2.378464,-0.673294,-0.038574,-0.590332,0.831055,2.0897634804342626,-38.677679062589355,105.97617551454293,0.5727428793907166,-0.2130550742149353,-0.2540279030799866,0.7496952414512634
370c9b1f-c64f-4767-9b78-02ca171d1de2,5f696041-e836-4b45-a531-91715e25c5e7,1760607917127038672,4.701614,2.931595,-0.429153,-0.040527,-0.587402,0.823242,2.1214924472140226,-38.61171682313631,105.89630325275044,0.573442280292511,-0.21311511099338531,-0.2532850205898285,0.7493948340415955
370c9b1f-c64f-4767-9b78-02ca171d1de2,5f696041-e836-4b45-a531-91715e25c5e7,1760607917135037672,4.579544,3.171921,-0.062943,-0.044434,-0.599609,0.819336,2.152379081670195,-38.54730333988119,105.79245550705491,0.5742934346199036,-0.2132291942834854,-0.2525118589401245,0.7489713430404663
370c9b1f-c64f-4767-9b78-02ca171d1de2,5f696041-e836-4b45-a531-91715e25c5e7,1760607917143036672,4.821777,3.051758,0.059128,-0.047852,-0.59668,0.820312,2.1883906192254465,-38.486714248471095,105.68226411886502,0.5751903653144836,-0.21340830624103546,-0.2517262399196625,0.7484963536262512
370c9b1f-c64f-4767-9b78-02ca171d1de2,5f696041-e836-4b45-a531-91715e25c5e7,1760607917151035672,4.516602,3.234863,0.364304,-0.0625,-0.584473,0.8125,2.2270892067790506,-38.42656104086188,105.58561089446125,0.5760032534599304,-0.21357616782188416,-0.2509549558162689,0.7480822205543518
370c9b1f-c64f-4767-9b78-02ca171d1de2,5f696041-e836-4b45-a531-91715e25c5e7,1760607917159034672,3.910065,2.258301,0.730515,-0.04248,-0.593262,0.805176,2.2613985334607642,-38.373870267945236,105.51067004993955,0.5766521096229553,-0.2137037068605423,-0.2502951920032501,0.74776691198349
370c9b1f-c64f-4767-9b78-02ca171d1de2,5f696041-e836-4b45-a531-91715e25c5e7,1760607917169713672,3.173828,1.708984,0.974655,-0.044434,-0.585449,0.802246,2.2887516049816967,-38.32289659034229,105.38734864293647,0.5775980353355408,-0.21389900147914886,-0.24959132075309753,0.7472161054611206
370c9b1f-c64f-4767-9b78-02ca171d1de2,5f696041-e836-4b45-a531-91715e25c5e7,1760607917180392672,2.502441,0.976562,0.91362,-0.04541,-0.595215,0.810059,2.314932351038117,-38.280775729043015,105.29502997596414,0.5783243775367737,-0.2140619456768036,-0.249009370803833,0.7468016147613525
370c9b1f-c64f-4767-9b78-02ca171d1de2,5f696041-e836-4b45-a531-91715e25c5e7,1760607917191071672,1.893997,0.852585,0.608444,-0.037109,-0.595703,0.817383,2.3289823798895797,-38.24407993550647,105.25601321031228,0.578667938709259,-0.2140563428401947,-0.24862384796142578,0.7466655373573303
370c9b1f-c64f-4767-9b78-02ca171d1de2,5f696041-e836-4b45-a531-91715e25c5e7,1760607917199064672,1.405716,0.181198,0.303268,-0.039062,-0.583984,0.824707,2.335763498560688,-38.20833089004803,105.19328834350506,0.579148530960083,-0.21405921876430511,-0.2482369989156723,0.7464207410812378
370c9b1f-c64f-4767-9b78-02ca171d1de2,5f696041-e836-4b45-a531-91715e25c5e7,1760607917207057672,1.588821,0.730515,-0.307083,-0.034668,-0.583496,0.813477,2.3379412257786827,-38.180306785570316,105.0898901348589,0.579871416091919,-0.2141580581665039,-0.24784831702709198,0.7459602355957031
370c9b1f-c64f-4767-9b78-02ca171d1de2,5f696041-e836-4b45-a531-91715e25c5e7,1760607917215050672,1.22261,0.364304,-0.734329,-0.037109,-0.594727,0.831055,2.3357581682413757,-38.14734748144292,105.06297316354166,0.5800946950912476,-0.21403826773166656,-0.24759219586849213,0.7459060549736023
370c9b1f-c64f-4767-9b78-02ca171d1de2,5f696041-e836-4b45-a531-91715e25c5e7,1760607917223043672,0.854492,0.549316,-1.588821,-0.034668,-0.59668,0.804687,2.332492094983587,-38.12473737251255,105.0028307508177,0.5805152654647827,-0.21403448283672333,-0.2473476529121399,0.7456610202789307
370c9b1f-c64f-4767-9b78-02ca171d1de2,5f696041-e836-4b45-a531-91715e25c5e7,1760607917231032672,0.183105,0.549316,-2.199173,-0.037109,-0.596191,0.819824,2.321132411119687,-38.103853590802764,104.87832318469883,0.581334114074707,-0.21412523090839386,-0.24703532457351685,0.7451003193855286
370c9b1f-c64f-4767-9b78-02ca171d1de2,5f696041-e836-4b45-a531-91715e25c5e7,1760607917239021672,-0.488281,0.305176,-2.626419,-0.041504,-0.587891,0.810547,2.309470565569483,-38.09014361476148,104.72853611342238,0.5823044776916504,-0.21430376172065735,-0.2467244565486908,0.7443940043449402
370c9b1f-c64f-4767-9b78-02ca171d1de2,5f696041-e836-4b45-a531-91715e25c5e7,1760607917247010672,-1.218796,-0.123978,-3.175735,-0.038086,-0.594238,0.806641,2.2915038590604073,-38.08654440413587,104.59448320408197,0.5831420421600342,-0.2144576460123062,-0.24654141068458557,0.7437543869018555
370c9b1f-c64f-4767-9b78-02ca171d1de2,5f696041-e836-4b45-a531-91715e25c5e7,1760607917254999672,-2.075195,-0.427246,-3.602982,-0.054687,-0.598633,0.796875,2.278062614820729,-38.09306100233082,104.47537877338662,0.5838753581047058,-0.21465922892093658,-0.24642957746982574,0.7431577444076538
370c9b1f-c64f-4767-9b78-02ca171d1de2,5f696041-e836-4b45-a531-91715e25c5e7,1760607917265673672,-2.988815,-0.917435,-4.030228,-0.050781,-0.597656,0.788574,2.259722749954809,-38.10874744834405,104.34731394242941,0.5846407413482666,-0.21489430963993073,-0.2463858276605606,0.7425022721290588
370c9b1f-c64f-4767-9b78-02ca171d1de2,5f696041-e836-4b45-a531-91715e25c5e7,1760607917276347672,-3.108978,-1.342773,-3.847122,-0.051758,-0.593262,0.820312,2.2335951841907273,-38.123823681261584,104.20643603851597,0.5854725241661072,-0.2151036262512207,-0.24635358154773712,0.741796612739563
370c9b1f-c64f-4767-9b78-02ca171d1de2,5f696041-e836-4b45-a531-91715e25c5e7,1760607917287021672,-3.965378,-1.10054,-4.030228,-0.060059,-0.604492,0.808105,2.2073822603297097,-38.14453111721325,104.13306614954095,0.5858573317527771,-0.21519578993320465,-0.24648521840572357,0.7414222359657288
370c9b1f-c64f-4767-9b78-02ca171d1de2,5f696041-e836-4b45-a531-91715e25c5e7,1760607917295048672,-4.331589,-0.97847,-3.847122,-0.056152,-0.596191,0.801758,2.188504303386649,-38.170108471934746,104.04547893836936,0.5863415598869324,-0.21539072692394257,-0.24658437073230743,0.7409497499465942
370c9b1f-c64f-4767-9b78-02ca171d1de2,5f696041-e836-4b45-a531-91715e25c5e7,1760607917303075672,-4.394531,-1.525879,-3.664017,-0.050781,-0.606934,0.795898,2.1642600716191116,-38.19845591833357,103.91880551647155,0.5870617628097534,-0.21564936637878418,-0.24665535986423492,0.7402803301811218
370c9b1f-c64f-4767-9b78-02ca171d1de2,5f696041-e836-4b45-a531-91715e25c5e7,1760607917311102672,-4.270554,-1.405716,-2.87056,-0.056641,-0.603516,0.803711,2.1489136015801233,-38.224741332617114,103.83153343224068,0.5875492691993713,-0.21587064862251282,-0.2467411905527115,0.7398002743721008
370c9b1f-c64f-4767-9b78-02ca171d1de2,5f696041-e836-4b45-a531-91715e25c5e7,1760607917319129672,-4.514694,-1.955032,-2.87056,-0.064453,-0.621094,0.825684,2.1320794254473032,-38.25196032973907,103.73814021550318,0.5880710482597351,-0.21610048413276672,-0.24682897329330444,0.7392891049385071
370c9b1f-c64f-4767-9b78-02ca171d1de2,5f696041-e836-4b45-a531-91715e25c5e7,1760607917329773672,-4.331589,-1.955032,-2.687454,-0.055176,-0.603516,0.825195,2.1091751341382343,-38.27532998516441,103.59381518840908,0.5889138579368591,-0.2163817286491394,-0.24682646989822388,0.7385364174842834
370c9b1f-c64f-4767-9b78-02ca171d1de2,5f696041-e836-4b45-a531-91715e25c5e7,1760607917340417672,-4.211426,-2.01416,-2.016068,-0.057129,-0.611328,0.826172,2.094166983010599,-38.29702819493732,103.45623701502666,0.5897319316864014,-0.21669116616249084,-0.24678486585617065,0.7378064393997192
370c9b1f-c64f-4767-9b78-02ca171d1de2,5f696041-e836-4b45-a531-91715e25c5e7,1760607917351061672,-3.601074,-2.441406,-1.832962,-0.071777,-0.607422,0.822266,2.0832096016012187,-38.315094873526135,103.32841624845275,0.5905010104179382,-0.21698743104934692,-0.24671685695648193,0.7371267080307007
370c9b1f-c64f-4767-9b78-02ca171d1de2,5f696041-e836-4b45-a531-91715e25c5e7,1760607917359045672,-3.540039,-2.624512,-1.22261,-0.061523,-0.605957,0.811035,2.0707729795726535,-38.335710219680664,103.23638882466386,0.5910317897796631,-0.21721021831035614,-0.24674052000045776,0.7366275787353516
370c9b1f-c64f-4767-9b78-02ca171d1de2,5f696041-e836-4b45-a531-91715e25c5e7,1760607917367029672,-3.355026,-2.748489,-0.795364,-0.053223,-0.598145,0.813965,2.056208311938368,-38.35156458353812,103.14380609956194,0.5915690064430237,-0.21739651262760162,-0.24674300849437714,0.7361403703689575
370c9b1f-c64f-4767-9b78-02ca171d1de2,5f696041-e836-4b45-a531-91715e25c5e7,1760607917375013672,-3.660202,-2.931595,-0.551224,-0.05957,-0.617188,0.810059,2.039371355875782,-38.37439151749008,103.042969354024,0.5921422243118286,-0.2176215946674347,-0.24678660929203033,0.7355982065200806
370c9b1f-c64f-4767-9b78-02ca171d1de2,5f696041-e836-4b45-a531-91715e25c5e7,1760607917382997672,-3.780365,-3.173828,-0.123978,-0.049316,-0.620117,0.794434,2.0235740219494565,-38.40332546802432,103.0028387325995,0.5923174023628235,-0.21775387227535248,-0.24697954952716827,0.7353532910346985
370c9b1f-c64f-4767-9b78-02ca171d1de2,5f696041-e836-4b45-a531-91715e25c5e7,1760607917391058672,-4.331589,-3.053665,0.669479,-0.034668,-0.620605,0.803711,2.0093596119777613,-38.43195507884638,102.95529951046612,0.5925438404083252,-0.21791093051433563,-0.24714815616607666,0.73506760597229
370c9b1f-c64f-4767-9b78-02ca171d1de2,5f696041-e836-4b45-a531-91715e25c5e7,1760607917399119672,-4.331589,-3.358841,0.852585,-0.048828,-0.606934,0.80127,1.9986429743662186,-38.46035100318192,102.86656879157277,0.5930420756340027,-0.21817827224731445,-0.24721862375736237,0.7345626354217529
370c9b1f-c64f-4767-9b78-02ca171d1de2,5f696041-e836-4b45-a531-91715e25c5e7,1760607917407180672,-4.514694,-3.725052,1.340866,-0.04541,-0.621582,0.804199,1.987789005648676,-38.49477343260194,102.79014189546376,0.5934505462646484,-0.21844914555549622,-0.24735194444656372,0.734107255935669
370c9b1f-c64f-4767-9b78-02ca171d1de2,5f696041-e836-4b45-a531-91715e25c5e7,1760607917415241672,-4.577637,-3.78418,1.523972,-0.049316,-0.613281,0.819336,1.979961253309994,-38.52721597654811,102.73215939495988,0.5937503576278687,-0.21868973970413208,-0.24749170243740082,0.7337459921836853
370c9b1f-c64f-4767-9b78-02ca171d1de2,5f696041-e836-4b45-a531-91715e25c5e7,1760607917425999672,-4.758835,-4.030228,2.195358,-0.043457,-0.61084,0.823242,1.9702201808407191,-38.55448626036417,102.69293480443145,0.5939344167709351,-0.21885132789611816,-0.2476435750722885,0.7334975600242615
370c9b1f-c64f-4767-9b78-02ca171d1de2,5f696041-e836-4b45-a531-91715e25c5e7,1760607917436757672,-4.6978,-4.091263,2.744675,-0.04248,-0.615723,0.806641,1.9626232019518302,-38.58256478726269,102.6558902639531,0.5941076278686523,-0.21902617812156677,-0.24779361486434937,0.7332543730735779
370c9b1f-c64f-4767-9b78-02ca171d1de2,5f696041-e836-4b45-a531-91715e25c5e7,1760607917447515672,-4.577637,-4.272461,2.744675,-0.046875,-0.616699,0.819824,1.957353791981027,-38.61040838491259,102.61621397276262,0.5943029522895813,-0.21922053396701813,-0.24792492389678955,0.7329935431480408
370c9b1f-c64f-4767-9b78-02ca171d1de2,5f696041-e836-4b45-a531-91715e25c5e7,1760607917455388672,-4.577637,-4.699707,3.416061,-0.046387,-0.626465,0.806641,1.9509294626690612,-38.64118142436545,102.61191652361181,0.5942643880844116,-0.21934595704078674,-0.24814873933792114,0.7329115867614746
370c9b1f-c64f-4767-9b78-02ca171d1de2,5f696041-e836-4b45-a531-91715e25c5e7,1760607917463261672,-4.882812,-4.821777,3.721237,-0.027344,-0.605469,0.813477,1.9425404233005965,-38.66939506190532,102.59075192553156,0.5943337082862854,-0.21948233246803284,-0.2483338862657547,0.7327517867088318
370c9b1f-c64f-4767-9b78-02ca171d1de2,5f696041-e836-4b45-a531-91715e25c5e7,1760607917471134672,-4.882812,-4.699707,4.209518,-0.030273,-0.621094,0.817871,1.9314055835609836,-38.70040734379769,102.52958873090327,0.5946478843688965,-0.21970225870609283,-0.2484745979309082,0.7323831915855408
370c9b1f-c64f-4767-9b78-02ca171d1de2,5f696041-e836-4b45-a531-91715e25c5e7,1760607917479007672,-4.6978,-4.396439,4.270554,-0.025879,-0.627441,0.820801,1.924897622772686,-38.72786353764764,102.49011540495214,0.5948392748832703,-0.2198866903781891,-0.2486097812652588,0.7321265339851379
370c9b1f-c64f-4767-9b78-02ca171d1de2,5f696041-e836-4b45-a531-91715e25c5e7,1760607917487012672,-4.514694,-4.579544,4.575729,-0.024414,-0.624512,0.804199,1.9146330233993383,-38.76009088200843,102.47978427823342,0.5948280692100525,-0.22000838816165924,-0.24885107576847076,0.7320170998573303
370c9b1f-c64f-4767-9b78-02ca171d1de2,5f696041-e836-4b45-a531-91715e25c5e7,1760607917495017672,-4.453659,-4.335403,4.270554,-0.021484,-0.621094,0.79834,1.906929381444555,-38.792076221561594,102.4391544372181,0.5950162410736084,-0.22021110355854034,-0.24901925027370453,0.7317459583282471
370c9b1f-c64f-4767-9b78-02ca171d1de2,5f696041-e836-4b45-a531-91715e25c5e7,1760607917503022672,-4.699707,-3.78418,4.514694,-0.023926,-0.62207,0.790039,1.9013855111373592,-38.82437697500225,102.40113423249183,0.5951917171478271,-0.22042368352413177,-0.24918311834335327,0.7314833998680115
370c9b1f-c64f-4767-9b78-02ca171d1de2,5f696041-e836-4b45-a531-91715e25c5e7,1760607917511027672,-5.493164,-3.662109,4.148483,-0.015137,-0.620605,0.795898,1.892950803807924,-38.86324913736518,102.37062858833738,0.5953015089035034,-0.22063522040843964,-0.24941866099834442,0.731249988079071
370c9b1f-c64f-4767-9b78-02ca171d1de2,5f696041-e836-4b45-a531-91715e25c5e7,1760607917521689672,-5.859375,-3.540039,3.721237,-0.012207,-0.62207,0.786621,1.882924547852482,-38.91001448381571,102.34199483447563,0.5953821539878845,-0.22087308764457703,-0.24971677362918854,0.7310107350349426
370c9b1f-c64f-4767-9b78-02ca171d1de2,5f696041-e836-4b45-a531-91715e25c5e7,1760607917532351672,-6.164551,-3.112793,3.232956,-0.004395,-0.644531,0.80127,1.8717426735271876,-38.96013434924912,102.29195486839222,0.5955907702445984,-0.22116762399673462,-0.2500010132789612,0.7306544780731201
370c9b1f-c64f-4767-9b78-02ca171d1de2,5f696041-e836-4b45-a531-91715e25c5e7,1760607917543013672,-6.713867,-2.929688,2.195358,-0.006836,-0.630371,0.79541,1.8546323368975257,-39.01660467032656,102.21819934770649,0.5959262251853943,-0.22150899469852448,-0.2503108084201813,0.7301713228225708
370c9b1f-c64f-4767-9b78-02ca171d1de2,5f696041-e836-4b45-a531-91715e25c5e7,1760607917551018672,-7.017136,-1.955032,1.340866,-0.003906,-0.645996,0.803711,1.8342817525219701,-39.07316349168111,102.15852754240716,0.5961641073226929,-0.221799835562706,-0.2506648600101471,0.7297673225402832
370c9b1f-c64f-4767-9b78-02ca171d1de2,5f696041-e836-4b45-a531-91715e25c5e7,1760607917559023672,-7.019043,-1.586914,0.242233,-0.01123,-0.63623,0.821289,1.8157367729764122,-39.12823215091906,102.12813230460544,0.5962216258049011,-0.22203083336353302,-0.25105634331703186,0.7295154333114624
370c9b1f-c64f-4767-9b78-02ca171d1de2,5f696041-e836-4b45-a531-91715e25c5e7,1760607917567028672,-6.58989,-1.646042,-0.734329,-0.010254,-0.639648,0.805664,1.7923708040166066,-39.18288980041234,102.01608562340525,0.5967884063720703,-0.22240836918354034,-0.25131165981292725,0.7288487553596497
370c9b1f-c64f-4767-9b78-02ca171d1de2,5f696041-e836-4b45-a531-91715e25c5e7,1760607917575033672,-6.530762,-1.403809,-1.649857,-0.022949,-0.63623,0.820312,1.7676321412060143,-39.23401527226077,101.91813138787141,0.597267746925354,-0.22272877395153046,-0.25157827138900757,0.7282660603523254
370c9b1f-c64f-4767-9b78-02ca171d1de2,5f696041-e836-4b45-a531-91715e25c5e7,1760607917583033672,-5.67627,-0.854492,-2.626419,-0.006348,-0.660156,0.818848,1.7359412519348396,-39.28258355580891,101.849133349598,0.5975518822669983,-0.22293010354042053,-0.2519208490848541,0.7278496623039246
370c9b1f-c64f-4767-9b78-02ca171d1de2,5f696041-e836-4b45-a531-91715e25c5e7,1760607917591033672,-5.187988,-0.671387,-3.602982,-0.014648,-0.652832,0.822754,1.7019833346115703,-39.32472999993586,101.74352573070794,0.5980737209320068,-0.22316370904445648,-0.252162367105484,0.7272657752037048
370c9b1f-c64f-4767-9b78-02ca171d1de2,5f696041-e836-4b45-a531-91715e25c5e7,1760607917599033672,-4.026413,-0.490189,-4.030228,-0.018555,-0.677734,0.817871,1.6678789106872467,-39.364261327720904,101.62769544080568,0.5986638069152832,-0.22340603172779083,-0.25236767530441284,0.7266346216201782
370c9b1f-c64f-4767-9b78-02ca171d1de2,5f696041-e836-4b45-a531-91715e25c5e7,1760607917607033672,-3.293991,-0.246048,-4.88472,-0.020508,-0.663086,0.825195,1.629456465316036,-39.3887550147501,101.48118787535968,0.5994644165039062,-0.22361162304878235,-0.25243932008743286,0.7258861660957336
370c9b1f-c64f-4767-9b78-02ca171d1de2,5f696041-e836-4b45-a531-91715e25c5e7,1760607917617700672,-2.561569,-0.307083,-4.945755,-0.036621,-0.650391,0.814453,1.5989566376581057,-39.40784588027064,101.34217625718665,0.6002435088157654,-0.2238234281539917,-0.2524494528770447,0.72517329454422
370c9b1f-c64f-4767-9b78-02ca171d1de2,5f696041-e836-4b45-a531-91715e25c5e7,1760607917628367672,-2.132416,-0.244141,-5.00679,-0.054199,-0.654785,0.821777,1.5717994164848998,-39.42060038664732,101.21288174128227,0.6009788513183594,-0.22400251030921936,-0.25242048501968384,0.7245187759399414
370c9b1f-c64f-4767-9b78-02ca171d1de2,5f696041-e836-4b45-a531-91715e25c5e7,1760607917639034672,-1.157761,-0.429153,-4.945755,-0.037109,-0.648926,0.822754,1.5422910081671917,-39.42680331027534,101.0470762645238,0.6019505262374878,-0.22421333193778992,-0.25229060649871826,0.7236917614936829
370c9b1f-c64f-4767-9b78-02ca171d1de2,5f696041-e836-4b45-a531-91715e25c5e7,1760607917647021672,-0.547409,-0.612259,-4.213333,-0.042969,-0.649414,0.8125,1.5177489000896405,-39.42725792069736,100.92693926322264,0.6026540994644165,-0.22432520985603333,-0.2521873712539673,0.7231072783470154
370c9b1f-c64f-4767-9b78-02ca171d1de2,5f696041-e836-4b45-a531-91715e25c5e7,1760607917655008672,0.062943,-0.307083,-3.786087,-0.038574,-0.648926,0.804199,1.4964804224798913,-39.423910168963566,100.87554142732277,0.6029375791549683,-0.2242867350578308,-0.252177357673645,0.722886323928833
370c9b1f-c64f-4767-9b78-02ca171d1de2,5f696041-e836-4b45-a531-91715e25c5e7,1760607917662995672,0.183105,-0.427246,-3.236771,-0.043457,-0.644531,0.801758,1.481796974628741,-39.41616158954095,100.79644769582377,0.6034179925918579,-0.22432781755924225,-0.25205057859420776,0.7225168347358704
370c9b1f-c64f-4767-9b78-02ca171d1de2,5f696041-e836-4b45-a531-91715e25c5e7,1760607917670982672,1.037598,-0.732422,-2.687454,-0.052734,-0.649902,0.814941,1.4731679574736893,-39.39840324329446,100.71650493710904,0.6039348244667053,-0.22435671091079712,-0.2518267333507538,0.722153902053833
370c9b1f-c64f-4767-9b78-02ca171d1de2,5f696041-e836-4b45-a531-91715e25c5e7,1760607917679024672,1.037598,-0.915527,-1.588821,-0.060059,-0.642578,0.814941,1.4685886453198471,-39.382050661635354,100.61887677949838,0.6045691967010498,-0.2244570553302765,-0.2515558898448944,0.721686065196991
370c9b1f-c64f-4767-9b78-02ca171d1de2,5f696041-e836-4b45-a531-91715e25c5e7,1760607917687066672,1.649857,-1.466751,-1.527786,-0.057129,-0.635254,0.79541,1.4657083858463285,-39.36379759905077,100.52236312920402,0.6052033305168152,-0.22455540299415588,-0.251266211271286,0.7212246656417847
370c9b1f-c64f-4767-9b78-02ca171d1de2,5f696041-e836-4b45-a531-91715e25c5e7,1760607917695108672,1.405716,-1.588821,-0.612259,-0.053223,-0.63916,0.796387,1.4623304956023144,-39.34599592601144,100.43006721567315,0.605808675289154,-0.22464340925216675,-0.2509903013706207,0.7207849025726318
370c9b1f-c64f-4767-9b78-02ca171d1de2,5f696041-e836-4b45-a531-91715e25c5e7,1760607917703150672,1.647949,-2.01416,0.486374,-0.039062,-0.641113,0.807129,1.4591441510621723,-39.32844989249232,100.34800056113424,0.6063493490219116,-0.22471126914024353,-0.2507350742816925,0.7203977704048157
370c9b1f-c64f-4767-9b78-02ca171d1de2,5f696041-e836-4b45-a531-91715e25c5e7,1760607917713782672,1.893997,-1.893997,0.79155,-0.030762,-0.633789,0.80127,1.4557074837126658,-39.30180274175134,100.28485413575454,0.6067867279052734,-0.22468829154968262,-0.250460684299469,0.7201319336891174
370c9b1f-c64f-4767-9b78-02ca171d1de2,5f696041-e836-4b45-a531-91715e25c5e7,1760607917724414672,1.588821,-2.565384,1.218796,-0.043457,-0.629395,0.81543,1.4524614493889765,-39.27816308888044,100.25322298401339,0.6070209741592407,-0.22461320459842682,-0.2502661943435669,0.7200254201889038
370c9b1f-c64f-4767-9b78-02ca171d1de2,5f696041-e836-4b45-a531-91715e25c5e7,1760607917735046672,2.260208,-2.317429,1.707077,-0.041504,-0.637695,0.805176,1.4514839082066104,-39.251807531412936,100.22976602120603,0.6072136759757996,-0.22452020645141602,-0.2500585615634918,0.7199639081954956
370c9b1f-c64f-4767-9b78-02ca171d1de2,5f696041-e836-4b45-a531-91715e25c5e7,1760607917743035672,2.13623,-2.258301,1.829147,-0.02832,-0.632812,0.809082,1.4474670218258556,-39.224675346303556,100.20940317810746,0.6073813438415527,-0.2243957668542862,-0.2498680204153061,0.7199308276176453
370c9b1f-c64f-4767-9b78-02ca171d1de2,5f696041-e836-4b45-a531-91715e25c5e7,1760607917751024672,2.443314,-2.382278,1.768112,-0.03418,-0.632324,0.811035,1.4436496212142105,-39.190436577816826,100.20249100249957,0.6074780225753784,-0.2242072969675064,-0.2496579885482788,0.7199808359146118
370c9b1f-c64f-4767-9b78-02ca171d1de2,5f696041-e836-4b45-a531-91715e25c5e7,1760607917759013672,2.565384,-2.382278,1.951218,-0.021973,-0.624512,0.806641,1.4378330039808598,-39.15352508817608,100.17373118899489,0.6077123880386353,-0.22403974831104279,-0.24939893186092377,0.7199249863624573
370c9b1f-c64f-4767-9b78-02ca171d1de2,5f696041-e836-4b45-a531-91715e25c5e7,1760607917767002672,2.502441,-2.319336,1.462936,-0.017578,-0.62793,0.808594,1.4304260302779772,-39.12226506855454,100.11215906523564,0.6081392168998718,-0.22396308183670044,-0.24912004172801971,0.719684898853302
370c9b1f-c64f-4767-9b78-02ca171d1de2,5f696041-e836-4b45-a531-91715e25c5e7,1760607917775017672,2.807617,-2.13623,1.585007,-0.020996,-0.615234,0.81543,1.422021756826094,-39.08524647866909,100.02905852058015,0.6087092757225037,-0.2238963544368744,-0.24876810610294342,0.7193453907966614
370c9b1f-c64f-4767-9b78-02ca171d1de2,5f696041-e836-4b45-a531-91715e25c5e7,1760607917783032672,2.685547,-1.525879,1.340866,-0.026367,-0.626465,0.802734,1.4183450133303193,-39.05072865372729,99.96163251245379,0.6091865301132202,-0.22383804619312286,-0.24843767285346985,0.7190736532211304
370c9b1f-c64f-4767-9b78-02ca171d1de2,5f696041-e836-4b45-a531-91715e25c5e7,1760607917791047672,2.624512,-1.525879,0.608444,-0.016113,-0.631836,0.810547,1.409933708527116,-39.01790448821706,99.91415265661428,0.609525203704834,-0.2237153947353363,-0.24818220734596252,0.7189130783081055
370c9b1f-c64f-4767-9b78-02ca171d1de2,5f696041-e836-4b45-a531-91715e25c5e7,1760607917799062672,2.565384,-1.466751,0.669479,-0.028809,-0.618164,0.812012,1.4051192034586275,-38.984909885337686,99.85967760472278,0.6099157929420471,-0.22362935543060303,-0.24789300560951233,0.718708336353302
370c9b1f-c64f-4767-9b78-02ca171d1de2,5f696041-e836-4b45-a531-91715e25c5e7,1760607917809709672,2.502441,-1.831055,0.486374,-0.023926,-0.610352,0.81543,1.4014659020203952,-38.9491513811627,99.83445814846928,0.6101303100585938,-0.22347256541252136,-0.24763734638690948,0.7186631560325623
370c9b1f-c64f-4767-9b78-02ca171d1de2,5f696041-e836-4b45-a531-91715e25c5e7,1760607917820356672,2.807617,-1.77002,0.059128,-0.027344,-0.620605,0.803711,1.3940891281124208,-38.913257118695554,99.83027589029297,0.6102050542831421,-0.22324614226818085,-0.24744170904159546,0.7187374830245972
370c9b1f-c64f-4767-9b78-02ca171d1de2,5f696041-e836-4b45-a531-91715e25c5e7,1760607917831003672,2.260208,-1.646042,-0.062943,-0.019531,-0.619141,0.808594,1.3799988165677612,-38.878839306275665,99.79272978189668,0.6104719042778015,-0.223057359457016,-0.24722622334957123,0.7186436057090759
370c9b1f-c64f-4767-9b78-02ca171d1de2,5f696041-e836-4b45-a531-91715e25c5e7,1760607917839001672,2.260208,-2.199173,-0.062943,-0.03418,-0.611816,0.8125,1.3641168515256588,-38.84201360208733,99.715801920862,0.6109861135482788,-0.22292932868003845,-0.2469286173582077,0.7183486223220825
370c9b1f-c64f-4767-9b78-02ca171d1de2,5f696041-e836-4b45-a531-91715e25c5e7,1760607917846999672,2.077103,-2.80571,0.181198,-0.043945,-0.611816,0.800293,1.3531333753320083,-38.80877892056184,99.68354124466538,0.611224353313446,-0.22275447845458984,-0.24671465158462524,0.7182736992835999
370c9b1f-c64f-4767-9b78-02ca171d1de2,5f696041-e836-4b45-a531-91715e25c5e7,1760607917854997672,1.647949,-3.051758,0.303268,-0.025391,-0.606934,0.805176,1.3377806939989383,-38.777736450995896,99.64623132026561,0.6114808917045593,-0.22257454693317413,-0.24652813374996185,0.7181751728057861
370c9b1f-c64f-4767-9b78-02ca171d1de2,5f696041-e836-4b45-a531-91715e25c5e7,1760607917862995672,1.647949,-2.807617,0.486374,-0.025879,-0.621094,0.806641,1.3230144299621192,-38.75224656947935,99.59520278157923,0.6118146777153015,-0.22245700657367706,-0.24634702503681183,0.717989444732666
370c9b1f-c64f-4767-9b78-02ca171d1de2,5f696041-e836-4b45-a531-91715e25c5e7,1760607917873678672,1.468658,-2.990723,1.157761,-0.035645,-0.600098,0.814453,1.3116237056269862,-38.72323703336593,99.54503140893897,0.6121566295623779,-0.22234001755714417,-0.24612750113010406,0.7178094387054443
370c9b1f-c64f-4767-9b78-02ca171d1de2,5f696041-e836-4b45-a531-91715e25c5e7,1760607917884361672,1.159668,-3.173828,1.03569,-0.027344,-0.611328,0.810059,1.2963584242908197,-38.698264160750334,99.49992271649445,0.6124512553215027,-0.22220908105373383,-0.24596409499645233,0.7176546454429626
370c9b1f-c64f-4767-9b78-02ca171d1de2,5f696041-e836-4b45-a531-91715e25c5e7,1760607917895044672,0.917435,-2.80571,1.401901,-0.027344,-0.605469,0.799805,1.2851218011813668,-38.67426906933456,99.46457102742582,0.6126916408538818,-0.22208747267723083,-0.24580435454845428,0.7175418734550476
370c9b1f-c64f-4767-9b78-02ca171d1de2,5f696041-e836-4b45-a531-91715e25c5e7,1760607917903047672,0.612259,-2.077103,1.829147,-0.03418,-0.611328,0.814941,1.2843676355880538,-38.65089752518643,99.42723925930989,0.6129657626152039,-0.22203896939754486,-0.2455887347459793,0.7173965573310852
370c9b1f-c64f-4767-9b78-02ca171d1de2,5f696041-e836-4b45-a531-91715e25c5e7,1760607917911050672,0.490189,-2.077103,1.768112,-0.025879,-0.605469,0.824707,1.2813788454505244,-38.63025993562748,99.37714979055198,0.6133099794387817,-0.22201815247535706,-0.24537762999534607,0.7171810269355774
370c9b1f-c64f-4767-9b78-02ca171d1de2,5f696041-e836-4b45-a531-91715e25c5e7,1760607917919053672,0.30899,-2.197266,1.890182,-0.032715,-0.605957,0.818848,1.2805595519749575,-38.612048766836224,99.3958854553488,0.613223671913147,-0.2218763530254364,-0.24530355632305145,0.7173240184783936
370c9b1f-c64f-4767-9b78-02ca171d1de2,5f696041-e836-4b45-a531-91715e25c5e7,1760607917927056672,0.734329,-1.893997,1.829147,-0.016113,-0.606445,0.806641,1.2781077540536043,-38.59168920610604,99.3828238913738,0.6133367419242859,-0.22178098559379578,-0.24516309797763824,0.7173048853874207
370c9b1f-c64f-4767-9b78-02ca171d1de2,5f696041-e836-4b45-a531-91715e25c5e7,1760607917935034672,-0.059128,-1.955032,2.134323,-0.024902,-0.623535,0.80957,1.2802790911387696,-38.58037784252984,99.32134369368387,0.6137464642524719,-0.22186607122421265,-0.2449612021446228,0.716996967792511
370c9b1f-c64f-4767-9b78-02ca171d1de2,5f696041-e836-4b45-a531-91715e25c5e7,1760607917943012672,-0.181198,-1.588821,2.256393,-0.017578,-0.60498,0.812012,1.279222573886963,-38.56451523805658,99.27231480709283,0.6140794157981873,-0.2218800038099289,-0.2447720319032669,0.716772198677063
370c9b1f-c64f-4767-9b78-02ca171d1de2,5f696041-e836-4b45-a531-91715e25c5e7,1760607917950990672,0.0,-1.586914,1.829147,-0.024902,-0.602051,0.816895,1.2829118834283524,-38.54946996462987,99.23072010849347,0.6143744587898254,-0.22191199660301208,-0.24457699060440063,0.7165759801864624
370c9b1f-c64f-4767-9b78-02ca171d1de2,5f696041-e836-4b45-a531-91715e25c5e7,1760607917958968672,-0.305176,-1.708984,1.462936,-0.017578,-0.601074,0.824219,1.278961929342876,-38.535636922885374,99.17410595431289,0.6147448420524597,-0.22193458676338196,-0.2444014698266983,0.7163111567497253
370c9b1f-c64f-4767-9b78-02ca171d1de2,5f696041-e836-4b45-a531-91715e25c5e7,1760607917969671672,-0.488281,-1.220703,1.096725,-0.014648,-0.598145,0.8125,1.2732879222572804,-38.52215658832845,99.1212758523294,0.6150871515274048,-0.2219400703907013,-0.244244784116745,0.7160690426826477
370c9b1f-c64f-4767-9b78-02ca171d1de2,5f696041-e836-4b45-a531-91715e25c5e7,1760607917980374672,-0.915527,-1.342773,0.91362,-0.001465,-0.603027,0.800781,1.261455879159203,-38.516069976113656,99.07568093174082,0.6153577566146851,-0.22193093597888947,-0.24418172240257263,0.7158608436584473
370c9b1f-c64f-4767-9b78-02ca171d1de2,5f696041-e836-4b45-a531-91715e25c5e7,1760607917991077672,-1.03569,-1.340866,0.547409,-0.016113,-0.608887,0.823242,1.2500569652706395,-38.50837593086479,99.01081431553106,0.6157524585723877,-0.2219569832086563,-0.2440689504146576,0.7155517339706421
370c9b1f-c64f-4767-9b78-02ca171d1de2,5f696041-e836-4b45-a531-91715e25c5e7,1760607917999069672,-0.976562,-1.831055,0.181198,-0.022461,-0.607422,0.82373,1.238416485123898,-38.503715355430906,98.939416414956,0.6161817908287048,-0.2220115214586258,-0.24396392703056335,0.7152009606361389
370c9b1f-c64f-4767-9b78-02ca171d1de2,5f696041-e836-4b45-a531-91715e25c5e7,1760607918007061672,-1.157761,-1.10054,-0.551224,-0.023926,-0.617676,0.808594,1.2260902451126618,-38.502038334809015,98.86131895846417,0.616645872592926,-0.2220918983221054,-0.2438683658838272,0.7148085236549377
370c9b1f-c64f-4767-9b78-02ca171d1de2,5f696041-e836-4b45-a531-91715e25c5e7,1760607918015053672,-1.464844,-1.159668,-0.673294,-0.01709,-0.625,0.811523,1.2118417104098198,-38.50610557932164,98.83895797094631,0.6167476773262024,-0.2220723032951355,-0.2439272403717041,0.7147067189216614
370c9b1f-c64f-4767-9b78-02ca171d1de2,5f696041-e836-4b45-a531-91715e25c5e7,1760607918023045672,-1.77002,-0.671387,-0.97847,-0.022461,-0.609375,0.820312,1.1974459831150237,-38.50918571334886,98.80394388980899,0.616929829120636,-0.2220735251903534,-0.24395620822906494,0.7145391702651978
370c9b1f-c64f-4767-9b78-02ca171d1de2,5f696041-e836-4b45-a531-91715e25c5e7,1760607918031043672,-1.586914,-0.671387,-1.466751,-0.010742,-0.620605,0.828613,1.1820696897983523,-38.508968288813165,98.73040221905316,0.6173559427261353,-0.22213304042816162,-0.24389511346817017,0.714173436164856
370c9b1f-c64f-4767-9b78-02ca171d1de2,5f696041-e836-4b45-a531-91715e25c5e7,1760607918039041672,-1.523972,-0.307083,-1.527786,-0.005371,-0.624023,0.832031,1.161212020434443,-38.510987469028635,98.64639800274247,0.617831289768219,-0.2221926748752594,-0.24385732412338257,0.7137565612792969
370c9b1f-c64f-4767-9b78-02ca171d1de2,5f696041-e836-4b45-a531-91715e25c5e7,1760607918047039672,-1.586914,-0.061035,-2.077103,-0.016602,-0.609863,0.817871,1.144918604713523,-38.51053495205266,98.5611680014932,0.6183281540870667,-0.22227013111114502,-0.2437770813703537,0.7133294939994812
370c9b1f-c64f-4767-9b78-02ca171d1de2,5f696041-e836-4b45-a531-91715e25c5e7,1760607918055037672,-1.281738,0.12207,-2.138138,-0.036621,-0.60791,0.808594,1.1409916082143834,-38.507785864265635,98.46069408363599,0.6189500093460083,-0.22244462370872498,-0.24358610808849335,0.7128008604049683
370c9b1f-c64f-4767-9b78-02ca171d1de2,5f696041-e836-4b45-a531-91715e25c5e7,1760607918065710672,-1.340866,0.307083,-2.443314,-0.027344,-0.617676,0.804199,1.1336511693770626,-38.50847236673217,98.36059362965709,0.6195555925369263,-0.22261537611484528,-0.24343568086624146,0.7122726440429688
370c9b1f-c64f-4767-9b78-02ca171d1de2,5f696041-e836-4b45-a531-91715e25c5e7,1760607918076383672,-1.037598,0.12207,-2.321243,-0.019531,-0.612305,0.830078,1.1196952624471785,-38.50575923807519,98.26781129018312,0.6201074123382568,-0.22271114587783813,-0.24331392347812653,0.7118039727210999
370c9b1f-c64f-4767-9b78-02ca171d1de2,5f696041-e836-4b45-a531-91715e25c5e7,1760607918087056672,-1.281738,0.12207,-2.260208,-0.024902,-0.621094,0.827148,1.1080328548102991,-38.50722674393722,98.20988777146158,0.6204397082328796,-0.2227696031332016,-0.24327363073825836,0.7115097641944885
370c9b1f-c64f-4767-9b78-02ca171d1de2,5f696041-e836-4b45-a531-91715e25c5e7,1760607918095129672,-1.155853,0.427246,-2.443314,-0.020508,-0.614258,0.827148,1.0984775811120817,-38.50394001714067,98.13804845806041,0.620871365070343,-0.22284509241580963,-0.24316518008708954,0.7111465930938721
370c9b1f-c64f-4767-9b78-02ca171d1de2,5f696041-e836-4b45-a531-91715e25c5e7,1760607918103202672,-0.793457,0.366211,-2.016068,-0.024902,-0.620117,0.81543,1.0966153776511547,-38.501796403215295,98.04708586609196,0.6214356422424316,-0.2230149507522583,-0.24298493564128876,0.7106619477272034
370c9b1f-c64f-4767-9b78-02ca171d1de2,5f696041-e836-4b45-a531-91715e25c5e7,1760607918111275672,-0.730515,0.364304,-1.955032,-0.027832,-0.592773,0.814453,1.0936084454005968,-38.49342353690857,97.98106957573079,0.6218538880348206,-0.22309117019176483,-0.24282053112983704,0.7103282809257507
370c9b1f-c64f-4767-9b78-02ca171d1de2,5f696041-e836-4b45-a531-91715e25c5e7,1760607918119348672,-0.915527,0.610352,-1.710892,-0.035156,-0.619141,0.834961,1.096098785073778,-38.48937989125199,97.95734212162787,0.6220136284828186,-0.2231351137161255,-0.2427356094121933,0.7102035880088806
370c9b1f-c64f-4767-9b78-02ca171d1de2,5f696041-e836-4b45-a531-91715e25c5e7,1760607918129902672,-0.852585,0.852585,-1.649857,-0.033691,-0.603027,0.826172,1.0983298489862783,-38.4806124405428,97.87897975835573,0.6225199103355408,-0.2232675999403,-0.24251621961593628,0.709793210029602
370c9b1f-c64f-4767-9b78-02ca171d1de2,5f696041-e836-4b45-a531-91715e25c5e7,1760607918140456672,0.183105,0.305176,-1.22261,-0.025879,-0.592285,0.835938,1.1046335207588474,-38.45856174713715,97.79663764040558,0.6230834722518921,-0.22336186468601227,-0.24218414723873138,0.7093822956085205
370c9b1f-c64f-4767-9b78-02ca171d1de2,5f696041-e836-4b45-a531-91715e25c5e7,1760607918151010672,0.490189,-0.001907,-1.466751,-0.03418,-0.601562,0.820312,1.1080755886374465,-38.43783612491342,97.70119981886572,0.6237192749977112,-0.22347283363342285,-0.2418503314256668,0.7089023590087891
370c9b1f-c64f-4767-9b78-02ca171d1de2,5f696041-e836-4b45-a531-91715e25c5e7,1760607918159005672,0.490189,0.059128,-1.283646,-0.041504,-0.599609,0.814941,1.1194560445121093,-38.42342531293443,97.63236258382469,0.624195396900177,-0.22361056506633759,-0.24156442284584045,0.708537220954895
370c9b1f-c64f-4767-9b78-02ca171d1de2,5f696041-e836-4b45-a531-91715e25c5e7,1760607918167000672,-0.242233,0.364304,-0.8564,-0.040527,-0.601074,0.801758,1.1327526436734479,-38.410129090217836,97.55818441664,0.6247062683105469,-0.22377713024616241,-0.2412644773721695,0.7081364989280701
370c9b1f-c64f-4767-9b78-02ca171d1de2,5f696041-e836-4b45-a531-91715e25c5e7,1760607918174995672,-0.364304,-0.001907,-0.307083,-0.040527,-0.603516,0.816895,1.1464028666578918,-38.39553285325237,97.48576765989348,0.6252090930938721,-0.2239348590373993,-0.2409578412771225,0.7077471613883972
370c9b1f-c64f-4767-9b78-02ca171d1de2,5f696041-e836-4b45-a531-91715e25c5e7,1760607918182990672,-0.427246,-0.061035,-0.062943,-0.030762,-0.609863,0.828125,1.1538793291654474,-38.37963255195608,97.44918570264821,0.6254798173904419,-0.22397184371948242,-0.24074675142765045,0.7075680494308472
370c9b1f-c64f-4767-9b78-02ca171d1de2,5f696041-e836-4b45-a531-91715e25c5e7,1760607918190990672,-0.547409,-0.307083,-0.062943,-0.032715,-0.605469,0.818848,1.163227938974985,-38.364948179424545,97.46861618413175,0.6254063248634338,-0.22390925884246826,-0.2406424582004547,0.7076882719993591
370c9b1f-c64f-4767-9b78-02ca171d1de2,5f696041-e836-4b45-a531-91715e25c5e7,1760607918198990672,-1.03569,-0.364304,0.059128,-0.025391,-0.621094,0.799805,1.1670436813478702,-38.35705237422912,97.40578604837602,0.6258167028427124,-0.22402194142341614,-0.24044977128505707,0.707355260848999
370c9b1f-c64f-4767-9b78-02ca171d1de2,5f696041-e836-4b45-a531-91715e25c5e7,1760607918206990672,-1.218796,-0.307083,0.486374,-0.023926,-0.602051,0.808594,1.1719085799210804,-38.34230812213979,97.34988166616637,0.6261988878250122,-0.22408929467201233,-0.24022231996059418,0.7070729732513428
370c9b1f-c64f-4767-9b78-02ca171d1de2,5f696041-e836-4b45-a531-91715e25c5e7,1760607918214990672,-1.218796,-0.490189,0.669479,-0.034668,-0.602539,0.81543,1.1845899570421206,-38.339238344307994,97.32926720624543,0.6263582706451416,-0.22419412434101105,-0.2400936335325241,0.7069422006607056
370c9b1f-c64f-4767-9b78-02ca171d1de2,5f696041-e836-4b45-a531-91715e25c5e7,1760607918225658672,-1.82724,-0.061035,0.425339,-0.027344,-0.597168,0.794434,1.1951421510245204,-38.343000352618,97.27611062916971,0.6267013549804688,-0.22439095377922058,-0.23995524644851685,0.7066226005554199
370c9b1f-c64f-4767-9b78-02ca171d1de2,5f696041-e836-4b45-a531-91715e25c5e7,1760607918236326672,-2.441406,-0.183105,0.425339,-0.037598,-0.606445,0.799316,1.2041110558887997,-38.351578460362255,97.21882249380792,0.6270576119422913,-0.22461271286010742,-0.23984716832637787,0.7062727212905884
370c9b1f-c64f-4767-9b78-02ca171d1de2,5f696041-e836-4b45-a531-91715e25c5e7,1760607918246994672,-2.988815,-0.001907,0.425339,-0.031738,-0.625488,0.802246,1.2133583145041025,-38.37001088527183,97.15874557054579,0.6274133920669556,-0.22489547729492188,-0.23979303240776062,0.7058850526809692
370c9b1f-c64f-4767-9b78-02ca171d1de2,5f696041-e836-4b45-a531-91715e25c5e7,1760607918254990672,-3.108978,0.12207,0.852585,-0.021484,-0.616699,0.820312,1.2224851542763684,-38.38418773056682,97.11550022156183,0.6276728510856628,-0.22511915862560272,-0.23974601924419403,0.7055990099906921
370c9b1f-c64f-4767-9b78-02ca171d1de2,5f696041-e836-4b45-a531-91715e25c5e7,1760607918262986672,-2.866745,0.364304,0.364304,-0.009277,-0.621582,0.823242,1.2286392374836537,-38.39696893047243,97.09164470238485,0.6278091669082642,-0.22527636587619781,-0.239744633436203,0.7054280638694763
370c9b1f-c64f-4767-9b78-02ca171d1de2,5f696041-e836-4b45-a531-91715e25c5e7,1760607918270982672,-2.746582,0.732422,0.0,-0.021973,-0.615723,0.817871,1.2375389206935423,-38.40743110381856,97.02274863680474,0.6282325983047485,-0.22553212940692902,-0.23962515592575073,0.7050097584724426
370c9b1f-c64f-4767-9b78-02ca171d1de2,5f696041-e836-4b45-a531-91715e25c5e7,1760607918278978672,-2.620697,0.793457,0.059128,-0.020508,-0.612305,0.829102,1.250557912557969,-38.41453244229251,96.97590614935245,0.6285349130630493,-0.22574873268604279,-0.23950549960136414,0.7047116160392761
370c9b1f-c64f-4767-9b78-02ca171d1de2,5f696041-e836-4b45-a531-91715e25c5e7,1760607918286990672,-1.829147,0.364304,-0.062943,-0.037598,-0.610352,0.827637,1.2598890419186362,-38.417136011602985,96.96315040402622,0.6286280751228333,-0.22584693133831024,-0.239445298910141,0.7046175003051758
370c9b1f-c64f-4767-9b78-02ca171d1de2,5f696041-e836-4b45-a531-91715e25c5e7,1760607918295002672,-1.77002,0.427246,-0.062943,-0.025391,-0.617676,0.816895,1.2681742450005795,-38.42057789473363,96.91788690489177,0.6289173364639282,-0.22601115703582764,-0.2393319010734558,0.704345166683197
370c9b1f-c64f-4767-9b78-02ca171d1de2,5f696041-e836-4b45-a531-91715e25c5e7,1760607918303014672,-1.890182,0.364304,-0.185013,-0.012207,-0.619629,0.806152,1.2703973840272023,-38.427907078809795,96.86516176842629,0.6292325258255005,-0.22617480158805847,-0.23926101624965668,0.7040351629257202
370c9b1f-c64f-4767-9b78-02ca171d1de2,5f696041-e836-4b45-a531-91715e25c5e7,1760607918311026672,-2.134323,0.059128,0.181198,-0.045898,-0.616699,0.803711,1.281241110684062,-38.437790697761805,96.81864390072414,0.6295227408409119,-0.22639232873916626,-0.23917073011398315,0.703736424446106
370c9b1f-c64f-4767-9b78-02ca171d1de2,5f696041-e836-4b45-a531-91715e25c5e7,1760607918321742672,-2.195358,0.364304,0.364304,-0.020508,-0.618164,0.8125,1.29033033794958,-38.448321052380024,96.76910980882485,0.6298264861106873,-0.22660887241363525,-0.23908798396587372,0.7034229636192322
370c9b1f-c64f-4767-9b78-02ca171d1de2,5f696041-e836-4b45-a531-91715e25c5e7,1760607918332458672,-2.929688,0.976562,0.181198,-0.023926,-0.608887,0.816895,1.302826540266065,-38.4588236349406,96.7147619299825,0.63016676902771,-0.22685615718364716,-0.23897665739059448,0.7030762434005737
370c9b1f-c64f-4767-9b78-02ca171d1de2,5f696041-e836-4b45-a531-91715e25c5e7,1760607918343174672,-2.803802,1.281738,0.181198,-0.01416,-0.60791,0.833984,1.3174915380933632,-38.467727933452096,96.65860650088437,0.6305254101753235,-0.22711171209812164,-0.2388397604227066,0.7027186751365662
370c9b1f-c64f-4767-9b78-02ca171d1de2,5f696041-e836-4b45-a531-91715e25c5e7,1760607918351141672,-2.80571,1.646042,0.059128,-0.026855,-0.612305,0.821289,1.3366879382959422,-38.47864635526865,96.63417775353435,0.630695104598999,-0.22733986377716064,-0.23875311017036438,0.7025220394134521
370c9b1f-c64f-4767-9b78-02ca171d1de2,5f696041-e836-4b45-a531-91715e25c5e7,1760607918359108672,-2.803802,1.281738,0.303268,-0.030273,-0.627441,0.815918,1.3573278228072843,-38.49649878881586,96.64262068349916,0.6306535005569458,-0.22754617035388947,-0.23876652121543884,0.7024880051612854
370c9b1f-c64f-4767-9b78-02ca171d1de2,5f696041-e836-4b45-a531-91715e25c5e7,1760607918367075672,-2.563477,1.098633,0.303268,-0.027832,-0.604004,0.84082,1.3773228174294585,-38.50079843145455,96.56479052093253,0.6311641931533813,-0.22785423696041107,-0.2385283261537552,0.7020102739334106
370c9b1f-c64f-4767-9b78-02ca171d1de2,5f696041-e836-4b45-a531-91715e25c5e7,1760607918375042672,-2.317429,1.157761,0.242233,-0.015137,-0.624023,0.819336,1.3900701582330488,-38.50835573282284,96.50104129771064,0.6315672397613525,-0.22810623049736023,-0.2383778989315033,0.7016168832778931
370c9b1f-c64f-4767-9b78-02ca171d1de2,5f696041-e836-4b45-a531-91715e25c5e7,1760607918383063672,-2.134323,1.03569,0.242233,-0.018066,-0.616699,0.813965,1.4018041906158396,-38.51626109283672,96.50366236871196,0.6315610408782959,-0.228215754032135,-0.2383672147989273,0.7015905380249023
370c9b1f-c64f-4767-9b78-02ca171d1de2,5f696041-e836-4b45-a531-91715e25c5e7,1760607918391084672,-1.89209,1.098633,0.120163,-0.035156,-0.626465,0.812012,1.4212939776255618,-38.526684227749,96.48473569770984,0.6316982507705688,-0.2284313291311264,-0.23828637599945068,0.7014243006706238
370c9b1f-c64f-4767-9b78-02ca171d1de2,5f696041-e836-4b45-a531-91715e25c5e7,1760607918399105672,-2.317429,1.340866,-0.062943,-0.029785,-0.611328,0.812012,1.4346580782537937,-38.535929111896216,96.41530002134834,0.6321339011192322,-0.228707954287529,-0.23813119530677795,0.7009941935539246
370c9b1f-c64f-4767-9b78-02ca171d1de2,5f696041-e836-4b45-a531-91715e25c5e7,1760607918407126672,-2.68364,1.283646,0.0,-0.025879,-0.614746,0.797363,1.45163629004874,-38.54942365796872,96.37395605079811,0.6323971748352051,-0.22897140681743622,-0.23803813755512238,0.7007023096084595
370c9b1f-c64f-4767-9b78-02ca171d1de2,5f696041-e836-4b45-a531-91715e25c5e7,1760607918417749672,-2.620697,1.098633,-0.062943,-0.039551,-0.617188,0.806641,1.4702819009697374,-38.563237121360075,96.33167747538764,0.6326689124107361,-0.22924870252609253,-0.23793581128120422,0.7004010081291199
370c9b1f-c64f-4767-9b78-02ca171d1de2,5f696041-e836-4b45-a531-91715e25c5e7,1760607918428372672,-2.92778,0.669479,-0.246048,-0.041016,-0.623047,0.813477,1.4836704708575925,-38.58169538076982,96.27603200794671,0.6330026984214783,-0.2295469492673874,-0.2378641813993454,0.7000259757041931
370c9b1f-c64f-4767-9b78-02ca171d1de2,5f696041-e836-4b45-a531-91715e25c5e7,1760607918438995672,-3.293991,0.547409,-0.123978,-0.035645,-0.604492,0.814453,1.4963549289677642,-38.59648102998034,96.19932391549591,0.6334701776504517,-0.2298644632101059,-0.23773135244846344,0.6995438933372498
370c9b1f-c64f-4767-9b78-02ca171d1de2,5f696041-e836-4b45-a531-91715e25c5e7,1760607918446998672,-3.171921,0.425339,-0.123978,-0.02832,-0.60791,0.8125,1.5003102294233108,-38.60864459031524,96.15622710851454,0.6337189674377441,-0.23004460334777832,-0.23769785463809967,0.6992706060409546
370c9b1f-c64f-4767-9b78-02ca171d1de2,5f696041-e836-4b45-a531-91715e25c5e7,1760607918455001672,-3.108978,0.427246,0.0,-0.029785,-0.614746,0.820801,1.5064244662367003,-38.62348793900512,96.17615976093747,0.633582592010498,-0.23012177646160126,-0.2377953976392746,0.6993356943130493
370c9b1f-c64f-4767-9b78-02ca171d1de2,5f696041-e836-4b45-a531-91715e25c5e7,1760607918463004672,-3.04985,0.181198,-0.551224,-0.022949,-0.619629,0.831055,1.5138270389124393,-38.63423392374481,96.16215037817541,0.6336635947227478,-0.23025484383106232,-0.23779244720935822,0.6992194652557373
370c9b1f-c64f-4767-9b78-02ca171d1de2,5f696041-e836-4b45-a531-91715e25c5e7,1760607918471007672,-2.317429,0.669479,-0.123978,-0.021973,-0.619629,0.825195,1.5221568656468434,-38.64251353214638,96.09571836879874,0.6340708136558533,-0.23048879206180573,-0.23766374588012695,0.6988168954849243
370c9b1f-c64f-4767-9b78-02ca171d1de2,5f696041-e836-4b45-a531-91715e25c5e7,1760607918479001672,-2.441406,0.610352,-0.123978,-0.019531,-0.634766,0.807129,1.5250148623985695,-38.65507251300618,96.09777960907549,0.6340409517288208,-0.2305707186460495,-0.23772931098937988,0.6987946629524231
370c9b1f-c64f-4767-9b78-02ca171d1de2,5f696041-e836-4b45-a531-91715e25c5e7,1760607918486995672,-2.378464,0.669479,-0.307083,-0.024414,-0.620117,0.813477,1.5335799927946576,-38.66308903384491,96.07843827485681,0.6341618299484253,-0.23070697486400604,-0.23769228160381317,0.6986525654792786
370c9b1f-c64f-4767-9b78-02ca171d1de2,5f696041-e836-4b45-a531-91715e25c5e7,1760607918494989672,-2.498627,1.098633,-0.368118,-0.027344,-0.62793,0.806152,1.5441524823764112,-38.67559422413302,96.01210310155797,0.6345649361610413,-0.23097747564315796,-0.23757699131965637,0.6982362866401672
370c9b1f-c64f-4767-9b78-02ca171d1de2,5f696041-e836-4b45-a531-91715e25c5e7,1760607918502983672,-2.439499,1.157761,-0.368118,-0.027344,-0.615234,0.812012,1.553514907384725,-38.68364687708734,95.9482715170953,0.6349582672119141,-0.23121094703674316,-0.2374458760023117,0.6978459358215332
370c9b1f-c64f-4767-9b78-02ca171d1de2,5f696041-e836-4b45-a531-91715e25c5e7,1760607918513649672,-2.380371,1.098633,-0.612259,-0.028809,-0.603027,0.796875,1.5636720622111686,-38.694470441484164,95.88629580270744,0.6353365778923035,-0.2314605414867401,-0.23733092844486237,0.6974578499794006
370c9b1f-c64f-4767-9b78-02ca171d1de2,5f696041-e836-4b45-a531-91715e25c5e7,1760607918524315672,-2.622604,1.157761,-0.123978,-0.027344,-0.620605,0.823242,1.5761450779045822,-38.705821325026385,95.8147672352545,0.6357765793800354,-0.2317468225955963,-0.23718684911727905,0.6970106959342957
370c9b1f-c64f-4767-9b78-02ca171d1de2,5f696041-e836-4b45-a531-91715e25c5e7,1760607918534981672,-2.866745,1.157761,-0.551224,-0.025879,-0.629395,0.798828,1.583477297229024,-38.72245810516577,95.74643324752125,0.6361764073371887,-0.2320241779088974,-0.2371099293231964,0.69657963514328
370c9b1f-c64f-4767-9b78-02ca171d1de2,5f696041-e836-4b45-a531-91715e25c5e7,1760607918542991672,-2.258301,1.281738,-0.490189,-0.032227,-0.628418,0.804687,1.596183437178007,-38.735700673366765,95.692250323385,0.6365073919296265,-0.2322862446308136,-0.23701079189777374,0.6962235569953918
370c9b1f-c64f-4767-9b78-02ca171d1de2,5f696041-e836-4b45-a531-91715e25c5e7,1760607918551001672,-2.80571,1.466751,-0.8564,-0.022461,-0.623047,0.817383,1.6018500065312498,-38.74800726126291,95.69970797341178,0.6364509463310242,-0.23237285017967224,-0.23706987500190735,0.696226179599762
370c9b1f-c64f-4767-9b78-02ca171d1de2,5f696041-e836-4b45-a531-91715e25c5e7,1760607918559011672,-2.561569,1.646042,-0.795364,-0.027344,-0.614746,0.820801,1.6142521542934154,-38.75632212180338,95.69674885584897,0.6364791393280029,-0.23250000178813934,-0.23704595863819122,0.6961660981178284
370c9b1f-c64f-4767-9b78-02ca171d1de2,5f696041-e836-4b45-a531-91715e25c5e7,1760607918567021672,-2.80571,2.378464,-0.917435,-0.03125,-0.616211,0.807129,1.6317103137860791,-38.76782428509171,95.66481228723316,0.6366878747940063,-0.2327353060245514,-0.23695464432239532,0.695927619934082
370c9b1f-c64f-4767-9b78-02ca171d1de2,5f696041-e836-4b45-a531-91715e25c5e7,1760607918577683672,-2.439499,2.622604,-1.039505,-0.029785,-0.617188,0.812012,1.649113277928695,-38.77671228531811,95.61700056863883,0.636997640132904,-0.2329886555671692,-0.23681522905826569,0.6956067681312561
370c9b1f-c64f-4767-9b78-02ca171d1de2,5f696041-e836-4b45-a531-91715e25c5e7,1760607918588345672,-2.563477,2.685547,-1.10054,-0.041504,-0.621094,0.833984,1.6770460584083655,-38.785872965694566,95.56574677801646,0.6373493671417236,-0.2333143949508667,-0.2366117388010025,0.6952446103096008
370c9b1f-c64f-4767-9b78-02ca171d1de2,5f696041-e836-4b45-a531-91715e25c5e7,1760607918599007672,-2.317429,2.866745,-0.795364,-0.026367,-0.620117,0.8125,1.6992933586780437,-38.79399525233559,95.51126972105561,0.6377106308937073,-0.2336064577102661,-0.2364267110824585,0.694878101348877
370c9b1f-c64f-4767-9b78-02ca171d1de2,5f696041-e836-4b45-a531-91715e25c5e7,1760607918607006672,-2.258301,2.502441,-1.039505,-0.043457,-0.611328,0.798828,1.7238689939671958,-38.80714514866595,95.45360842848893,0.6380864381790161,-0.23394672572612762,-0.23625275492668152,0.6944776773452759
370c9b1f-c64f-4767-9b78-02ca171d1de2,5f696041-e836-4b45-a531-91715e25c5e7,1760607918615005672,-2.317429,1.955032,-1.161575,-0.050293,-0.629395,0.802246,1.7493774815620673,-38.8194476299695,95.38684996644898,0.6385205984115601,-0.23430658876895905,-0.23604953289031982,0.6940262317657471
370c9b1f-c64f-4767-9b78-02ca171d1de2,5f696041-e836-4b45-a531-91715e25c5e7,1760607918623004672,-2.378464,2.012253,-1.161575,-0.049805,-0.618164,0.812012,1.7704163044461954,-38.82974708477963,95.34880176365814,0.6387751698493958,-0.23456904292106628,-0.23591741919517517,0.6937482357025146
370c9b1f-c64f-4767-9b78-02ca171d1de2,5f696041-e836-4b45-a531-91715e25c5e7,1760607918631003672,-2.744675,1.829147,-0.917435,-0.040527,-0.635742,0.810547,1.7903999496137055,-38.846249975088355,95.30670663236306,0.6390404105186462,-0.23486755788326263,-0.23582066595554352,0.693435788154602
370c9b1f-c64f-4767-9b78-02ca171d1de2,5f696041-e836-4b45-a531-91715e25c5e7,1760607918639009672,-2.803802,1.403809,-0.795364,-0.04541,-0.625,0.807129,1.8084444387901621,-38.86055516405742,95.25642579162319,0.6393551230430603,-0.2351590245962143,-0.23570431768894196,0.6930863261222839
370c9b1f-c64f-4767-9b78-02ca171d1de2,5f696041-e836-4b45-a531-91715e25c5e7,1760607918647015672,-2.500534,1.03569,-0.123978,-0.049316,-0.631348,0.813477,1.8276479097422216,-38.877348288113645,95.26687808299783,0.6393001675605774,-0.23534619808197021,-0.23572124540805817,0.6930677890777588
370c9b1f-c64f-4767-9b78-02ca171d1de2,5f696041-e836-4b45-a531-91715e25c5e7,1760607918655021672,-2.315521,0.915527,-0.185013,-0.046387,-0.623535,0.80957,1.8474185490563388,-38.887223579120715,95.25718124042713,0.6393811106681824,-0.23554013669490814,-0.23565135896205902,0.692950963973999
370c9b1f-c64f-4767-9b78-02ca171d1de2,5f696041-e836-4b45-a531-91715e25c5e7,1760607918663027672,-2.746582,1.037598,-0.368118,-0.039551,-0.614258,0.809082,1.8641257688792225,-38.897359964530665,95.19048896688932,0.6397997736930847,-0.23583409190177917,-0.235482856631279,0.6925217509269714
370c9b1f-c64f-4767-9b78-02ca171d1de2,5f696041-e836-4b45-a531-91715e25c5e7,1760607918673685672,-2.929688,0.732422,-0.062943,-0.044922,-0.635742,0.814941,1.8799232178091538,-38.91163732735481,95.12695090362948,0.640189528465271,-0.23613880574703217,-0.23535095155239105,0.6921024322509766
370c9b1f-c64f-4767-9b78-02ca171d1de2,5f696041-e836-4b45-a531-91715e25c5e7,1760607918684343672,-2.563477,0.793457,0.242233,-0.03418,-0.61084,0.8125,1.8938062858157807,-38.92061527450557,95.07208426840032,0.6405326128005981,-0.2363848239183426,-0.23521503806114197,0.6917471289634705
370c9b1f-c64f-4767-9b78-02ca171d1de2,5f696041-e836-4b45-a531-91715e25c5e7,1760607918695001672,-2.620697,1.098633,0.0,-0.047363,-0.625488,0.809082,1.9103814668253776,-38.929277206640116,95.0584685345097,0.640632688999176,-0.2365606427192688,-0.2351471334695816,0.6916173696517944
370c9b1f-c64f-4767-9b78-02ca171d1de2,5f696041-e836-4b45-a531-91715e25c5e7,1760607918703042672,-2.68364,1.401901,0.425339,-0.040039,-0.623535,0.820312,1.9298609239759041,-38.94193323261865,95.03226548457965,0.6408072113990784,-0.23680180311203003,-0.23506130278110504,0.6914023160934448
370c9b1f-c64f-4767-9b78-02ca171d1de2,5f696041-e836-4b45-a531-91715e25c5e7,1760607918711083672,-2.803802,0.793457,0.303268,-0.039062,-0.636719,0.812988,1.9525212192257027,-38.95843315092164,94.98157445671772,0.6411287188529968,-0.23713351786136627,-0.2349303513765335,0.6910350322723389
370c9b1f-c64f-4767-9b78-02ca171d1de2,5f696041-e836-4b45-a531-91715e25c5e7,1760607918719124672,-2.500534,0.669479,0.120163,-0.046875,-0.618652,0.802246,1.9689268232204986,-38.968967585520794,94.98818831514559,0.6411028504371643,-0.2372770756483078,-0.23491649329662323,0.6910144090652466
370c9b1f-c64f-4767-9b78-02ca171d1de2,5f696041-e836-4b45-a531-91715e25c5e7,1760607918727165672,-2.620697,0.244141,-0.123978,-0.04834,-0.624512,0.821289,1.9810307331185646,-38.977571576779916,94.96775934256807,0.641234815120697,-0.23743943870067596,-0.2348589152097702,0.6908557415008545
370c9b1f-c64f-4767-9b78-02ca171d1de2,5f696041-e836-4b45-a531-91715e25c5e7,1760607918735119672,-2.68364,0.059128,0.242233,-0.047363,-0.623535,0.817871,1.9934518406144544,-38.990727953128726,94.90592829825106,0.6416084170341492,-0.23771364986896515,-0.23474138975143433,0.6904544234275818
370c9b1f-c64f-4767-9b78-02ca171d1de2,5f696041-e836-4b45-a531-91715e25c5e7,1760607918743073672,-2.620697,-0.244141,0.364304,-0.049316,-0.625488,0.825684,2.005133062886757,-39.001162620640045,94.8654219036198,0.6418569087982178,-0.23792463541030884,-0.2346554845571518,0.6901799440383911
370c9b1f-c64f-4767-9b78-02ca171d1de2,5f696041-e836-4b45-a531-91715e25c5e7,1760607918751027672,-2.258301,-0.549316,0.303268,-0.05127,-0.635254,0.818848,2.016064961420571,-39.010368622697776,94.85421471517624,0.6419296264648438,-0.23806430399417877,-0.23462705314159393,0.6900737881660461
370c9b1f-c64f-4767-9b78-02ca171d1de2,5f696041-e836-4b45-a531-91715e25c5e7,1760607918758981672,-2.378464,-0.490189,0.425339,-0.039062,-0.622559,0.814453,2.0212142919034597,-39.01668880867257,94.83395364615072,0.6420503854751587,-0.23817172646522522,-0.23459459841251373,0.6899353861808777
370c9b1f-c64f-4767-9b78-02ca171d1de2,5f696041-e836-4b45-a531-91715e25c5e7,1760607918769671672,-2.500534,-0.612259,0.608444,-0.049316,-0.614746,0.802246,2.0315278341684624,-39.022210577344964,94.8018176830978,0.642254650592804,-0.23833009600639343,-0.2345036119222641,0.6897215247154236
370c9b1f-c64f-4767-9b78-02ca171d1de2,5f696041-e836-4b45-a531-91715e25c5e7,1760607918780361672,-2.441406,-0.610352,0.669479,-0.041504,-0.623535,0.80957,2.0369639510519812,-39.03227268195756,94.74630481847896,0.642581045627594,-0.23853203654289246,-0.23441888391971588,0.6893764138221741
370c9b1f-c64f-4767-9b78-02ca171d1de2,5f696041-e836-4b45-a531-91715e25c5e7,1760607918791051672,-2.317429,-0.490189,0.730515,-0.058105,-0.621094,0.810547,2.053016718165619,-39.04062311874321,94.72546966853378,0.6427236199378967,-0.23871739208698273,-0.23433628678321838,0.6892074346542358
370c9b1f-c64f-4767-9b78-02ca171d1de2,5f696041-e836-4b45-a531-91715e25c5e7,1760607918799042672,-2.258301,-0.732422,0.91362,-0.055176,-0.611816,0.796875,2.067700776930593,-39.0477613220235,94.69739157495098,0.6429091691970825,-0.23890259861946106,-0.23423883318901062,0.6890032887458801
370c9b1f-c64f-4767-9b78-02ca171d1de2,5f696041-e836-4b45-a531-91715e25c5e7,1760607918807033672,-2.622604,-0.97847,0.974655,-0.055176,-0.625977,0.799805,2.080145924288546,-39.05957538682602,94.64866379494322,0.643205463886261,-0.23914238810539246,-0.23413921892642975,0.6886773109436035
370c9b1f-c64f-4767-9b78-02ca171d1de2,5f696041-e836-4b45-a531-91715e25c5e7,1760607918815024672,-2.685547,-1.037598,1.03569,-0.052734,-0.632812,0.806152,2.094451019785268,-39.07482781114091,94.63521854641692,0.6432870030403137,-0.23934024572372437,-0.2341236025094986,0.6885377168655396
370c9b1f-c64f-4767-9b78-02ca171d1de2,5f696041-e836-4b45-a531-91715e25c5e7,1760607918823015672,-2.868652,-1.159668,1.462936,-0.039551,-0.628418,0.805664,2.104001920089496,-39.09145208472997,94.66877027632866,0.6430738568305969,-0.2394210696220398,-0.23424118757247925,0.6886687278747559
370c9b1f-c64f-4767-9b78-02ca171d1de2,5f696041-e836-4b45-a531-91715e25c5e7,1760607918833688672,-2.988815,-1.10054,1.585007,-0.048828,-0.625977,0.805664,2.113136748428127,-39.10643066605827,94.649834371484,0.6431783437728882,-0.23959755897521973,-0.23424144089221954,0.6885096430778503
370c9b1f-c64f-4767-9b78-02ca171d1de2,5f696041-e836-4b45-a531-91715e25c5e7,1760607918844361672,-2.68364,-1.22261,1.646042,-0.043945,-0.640625,0.821289,2.120874407038935,-39.1187541213575,94.64806976979249,0.6431817412376404,-0.2397158294916153,-0.23426926136016846,0.6884558796882629
370c9b1f-c64f-4767-9b78-02ca171d1de2,5f696041-e836-4b45-a531-91715e25c5e7,1760607918855034672,-2.378464,-1.405716,1.585007,-0.050293,-0.628418,0.816406,2.1286983800759542,-39.12641772107555,94.68071873249515,0.6429872512817383,-0.23973847925662994,-0.23434026539325714,0.6886054873466492
370c9b1f-c64f-4767-9b78-02ca171d1de2,5f696041-e836-4b45-a531-91715e25c5e7,1760607918863036672,-1.82724,-1.342773,1.462936,-0.034668,-0.632324,0.812988,2.1280733019945246,-39.133733434752905,94.66125927570526,0.643089234828949,-0.23981499671936035,-0.23434755206108093,0.6884810924530029
370c9b1f-c64f-4767-9b78-02ca171d1de2,5f696041-e836-4b45-a531-91715e25c5e7,1760607918871038672,-1.464844,-0.793457,1.585007,-0.037598,-0.619141,0.817871,2.1315947412656864,-39.13300876417358,94.63913953314389,0.643230676651001,-0.239877387881279,-0.23427708446979523,0.6883511543273926
370c9b1f-c64f-4767-9b78-02ca171d1de2,5f696041-e836-4b45-a531-91715e25c5e7,1760607918879040672,-1.464844,-0.549316,1.218796,-0.024414,-0.632324,0.825684,2.132396555785968,-39.130127411282665,94.59799225098686,0.6434848308563232,-0.23995035886764526,-0.2341689169406891,0.68812495470047
370c9b1f-c64f-4767-9b78-02ca171d1de2,5f696041-e836-4b45-a531-91715e25c5e7,1760607918887042672,-0.976562,-0.183105,0.974655,-0.033203,-0.608887,0.818848,2.1367264710152587,-39.12172168470418,94.55219620118189,0.6437843441963196,-0.24002335965633392,-0.23399759829044342,0.6878775954246521
370c9b1f-c64f-4767-9b78-02ca171d1de2,5f696041-e836-4b45-a531-91715e25c5e7,1760607918895032672,-0.793457,-0.12207,0.608444,-0.03125,-0.622559,0.819336,2.138279849117846,-39.10591387763818,94.49528882298847,0.6441586017608643,-0.24006125330924988,-0.2337736189365387,0.6875901222229004
370c9b1f-c64f-4767-9b78-02ca171d1de2,5f696041-e836-4b45-a531-91715e25c5e7,1760607918903022672,-0.305176,-0.366211,0.242233,-0.02832,-0.610352,0.810059,2.135805377488072,-39.090997630421626,94.44264394610693,0.644497275352478,-0.24007108807563782,-0.2335866540670395,0.687332808971405
370c9b1f-c64f-4767-9b78-02ca171d1de2,5f696041-e836-4b45-a531-91715e25c5e7,1760607918911012672,-0.486374,-0.001907,-0.368118,-0.032227,-0.611816,0.818848,2.136011666345598,-39.07027114967949,94.42707387784677,0.6446298360824585,-0.23998913168907166,-0.233427032828331,0.6872913241386414
370c9b1f-c64f-4767-9b78-02ca171d1de2,5f696041-e836-4b45-a531-91715e25c5e7,1760607918919002672,0.123978,0.242233,-0.551224,-0.026855,-0.619629,0.819824,2.133215728016458,-39.05552758752556,94.45914492616716,0.6444593071937561,-0.2398252785205841,-0.23342037200927734,0.6875106692314148
370c9b1f-c64f-4767-9b78-02ca171d1de2,5f696041-e836-4b45-a531-91715e25c5e7,1760607918927007672,0.0,0.305176,-1.283646,-0.037109,-0.616699,0.817871,2.131951427033914,-39.038726347257374,94.4421492749467,0.6445900797843933,-0.2397591471672058,-0.23328988254070282,0.687455415725708
370c9b1f-c64f-4767-9b78-02ca171d1de2,5f696041-e836-4b45-a531-91715e25c5e7,1760607918935012672,0.0,0.915527,-1.588821,-0.024902,-0.613281,0.812988,2.1249174229299523,-39.02280527190483,94.39693352064921,0.6448767185211182,-0.2397206425666809,-0.23313818871974945,0.6872515082359314
370c9b1f-c64f-4767-9b78-02ca171d1de2,5f696041-e836-4b45-a531-91715e25c5e7,1760607918943017672,0.0,0.915527,-1.771927,-0.030762,-0.612305,0.795898,2.119072861249799,-39.01108407443921,94.32616430643102,0.6453110575675964,-0.2397644817829132,-0.23295189440250397,0.6868915557861328
370c9b1f-c64f-4767-9b78-02ca171d1de2,5f696041-e836-4b45-a531-91715e25c5e7,1760607918951022672,-0.12207,0.915527,-2.138138,-0.026855,-0.619141,0.805664,2.1128406376124618,-38.999593171093224,94.25712825023793,0.6457335948944092,-0.23980361223220825,-0.2327728420495987,0.6865413784980774
370c9b1f-c64f-4767-9b78-02ca171d1de2,5f696041-e836-4b45-a531-91715e25c5e7,1760607918961676672,-0.179291,1.098633,-2.443314,-0.043945,-0.618652,0.803711,2.1110425901222896,-38.98750245931302,94.1997437851446,0.6460962891578674,-0.23984214663505554,-0.23258957266807556,0.686248779296875
370c9b1f-c64f-4767-9b78-02ca171d1de2,5f696041-e836-4b45-a531-91715e25c5e7,1760607918972330672,-0.242233,0.852585,-2.626419,-0.036621,-0.612305,0.812988,2.104864295616685,-38.974790700203094,94.13266271895057,0.6465091705322266,-0.2398705631494522,-0.23240697383880615,0.6859117746353149
370c9b1f-c64f-4767-9b78-02ca171d1de2,5f696041-e836-4b45-a531-91715e25c5e7,1760607918982984672,-0.610352,1.464844,-2.626419,-0.044434,-0.61084,0.79541,2.103665423595809,-38.96748891188115,94.06667104947304,0.6469153165817261,-0.23995652794837952,-0.23223134875297546,0.6855581998825073
370c9b1f-c64f-4767-9b78-02ca171d1de2,5f696041-e836-4b45-a531-91715e25c5e7,1760607918990986672,-0.793457,1.77002,-2.687454,-0.04248,-0.613281,0.799805,2.1037505659940954,-38.96489530524983,94.00131104168136,0.647311270236969,-0.240075021982193,-0.23207826912403107,0.6851946711540222
370c9b1f-c64f-4767-9b78-02ca171d1de2,5f696041-e836-4b45-a531-91715e25c5e7,1760607918998988672,-1.464844,1.647949,-2.809525,-0.041504,-0.612793,0.796875,2.109617414043771,-38.96658018685442,93.93244272870034,0.6477316617965698,-0.24025890231132507,-0.23191097378730774,0.6847894787788391
370c9b1f-c64f-4767-9b78-02ca171d1de2,5f696041-e836-4b45-a531-91715e25c5e7,1760607919006990672,-1.585007,1.829147,-2.687454,-0.047363,-0.621582,0.810059,2.116298470886288,-38.97177424980635,93.8843503079501,0.6480227708816528,-0.24042508006095886,-0.2318037450313568,0.6844919919967651
370c9b1f-c64f-4767-9b78-02ca171d1de2,5f696041-e836-4b45-a531-91715e25c5e7,1760607919014992672,-2.378464,2.012253,-2.382278,-0.049316,-0.630859,0.802246,2.130523914056855,-38.981154840189625,93.89555189154015,0.6479670405387878,-0.24053971469402313,-0.2318035364151001,0.684504508972168
370c9b1f-c64f-4767-9b78-02ca171d1de2,5f696041-e836-4b45-a531-91715e25c5e7,1760607919025662672,-2.500534,1.829147,-2.077103,-0.047363,-0.629395,0.796875,2.144323668297047,-38.995799834338726,93.88948929075966,0.6480036973953247,-0.24071604013442993,-0.2318013310432434,0.6844086050987244
370c9b1f-c64f-4767-9b78-02ca171d1de2,5f696041-e836-4b45-a531-91715e25c5e7,1760607919036332672,-2.68364,1.401901,-1.588821,-0.05127,-0.635254,0.806641,2.161288384566017,-39.014132862717,93.85825367349597,0.6481901407241821,-0.24098274111747742,-0.23175057768821716,0.6841553449630737
370c9b1f-c64f-4767-9b78-02ca171d1de2,5f696041-e836-4b45-a531-91715e25c5e7,1760607919047002672,-3.293991,1.03569,-1.588821,-0.063965,-0.615723,0.804199,2.1767455047613065,-39.033235017822975,93.78373801104392,0.6486302614212036,-0.24133220314979553,-0.23162174224853516,0.6836584806442261
370c9b1f-c64f-4767-9b78-02ca171d1de2,5f696041-e836-4b45-a531-91715e25c5e7,1760607919055006672,-3.601074,1.037598,-1.039505,-0.052246,-0.619141,0.806152,2.1927272990478475,-39.05406475048728,93.72512905134467,0.6489729881286621,-0.24166221916675568,-0.23153355717658997,0.683246374130249
370c9b1f-c64f-4767-9b78-02ca171d1de2,5f696041-e836-4b45-a531-91715e25c5e7,1760607919063010672,-4.089355,0.549316,-0.97847,-0.070801,-0.625488,0.797363,2.2103927649200634,-39.08119455210413,93.6962459748772,0.6491298675537109,-0.24197734892368317,-0.2315363585948944,0.6829847693443298
370c9b1f-c64f-4767-9b78-02ca171d1de2,5f696041-e836-4b45-a531-91715e25c5e7,1760607919071014672,-4.089355,0.793457,-0.429153,-0.055176,-0.614746,0.810059,2.2282467441058107,-39.106508166545055,93.66448291761395,0.6493076086044312,-0.2422892302274704,-0.2315208911895752,0.6827104687690735
370c9b1f-c64f-4767-9b78-02ca171d1de2,5f696041-e836-4b45-a531-91715e25c5e7,1760607919079018672,-4.209518,0.181198,-0.490189,-0.044922,-0.617188,0.796387,2.2379913018852378,-39.1306159701567,93.66269561629451,0.6492925882339478,-0.24248547852039337,-0.23160739243030548,0.6826257705688477
370c9b1f-c64f-4767-9b78-02ca171d1de2,5f696041-e836-4b45-a531-91715e25c5e7,1760607919087023672,-3.90625,0.061035,0.0,-0.048828,-0.620605,0.802246,2.251564119193959,-39.15463161510701,93.71122765196522,0.6489858031272888,-0.2426036298274994,-0.2317783236503601,0.6828137636184692
370c9b1f-c64f-4767-9b78-02ca171d1de2,5f696041-e836-4b45-a531-91715e25c5e7,1760607919095028672,-4.148483,-0.062943,0.242233,-0.052734,-0.625,0.804199,2.265063002591611,-39.18157706819181,93.72662755304188,0.6488706469535828,-0.2428031712770462,-0.23189717531204224,0.6828120946884155
370c9b1f-c64f-4767-9b78-02ca171d1de2,5f696041-e836-4b45-a531-91715e25c5e7,1760607919103033672,-3.780365,-0.366211,0.242233,-0.072266,-0.634277,0.806152,2.2834533913242225,-39.20902770060715,93.69380520232909,0.6490517258644104,-0.24313221871852875,-0.23188914358615875,0.6825257539749146
370c9b1f-c64f-4767-9b78-02ca171d1de2,5f696041-e836-4b45-a531-91715e25c5e7,1760607919111038672,-3.780365,-0.854492,0.120163,-0.052734,-0.638184,0.801758,2.2877701302021185,-39.23521726356792,93.7005708186935,0.6489708423614502,-0.2432902604341507,-0.23203712701797485,0.6824962496757507
370c9b1f-c64f-4767-9b78-02ca171d1de2,5f696041-e836-4b45-a531-91715e25c5e7,1760607919121698672,-4.089355,-1.098633,0.608444,-0.046875,-0.633301,0.803223,2.288269592330799,-39.259233111540475,93.69840626447214,0.6489394903182983,-0.24343153834342957,-0.23217464983463287,0.6824290156364441
370c9b1f-c64f-4767-9b78-02ca171d1de2,5f696041-e836-4b45-a531-91715e25c5e7,1760607919132358672,-3.723145,-1.037598,0.730515,-0.045898,-0.638184,0.807617,2.2941345833288977,-39.28298096363608,93.67567451536904,0.6490419507026672,-0.24364495277404785,-0.23223643004894257,0.6822344660758972
370c9b1f-c64f-4767-9b78-02ca171d1de2,5f696041-e836-4b45-a531-91715e25c5e7,1760607919143018672,-3.538132,-1.283646,0.730515,-0.043457,-0.631348,0.807129,2.296612411069703,-39.308832427614554,93.65991282396901,0.6490920186042786,-0.24383580684661865,-0.2323448359966278,0.6820818781852722
370c9b1f-c64f-4767-9b78-02ca171d1de2,5f696041-e836-4b45-a531-91715e25c5e7,1760607919151058672,-3.171921,-1.283646,0.608444,-0.041016,-0.641113,0.813965,2.293682689265714,-39.32969729699119,93.6585035790612,0.6490550637245178,-0.24393758177757263,-0.23248429596424103,0.6820332407951355
370c9b1f-c64f-4767-9b78-02ca171d1de2,5f696041-e836-4b45-a531-91715e25c5e7,1760607919159098672,-2.561569,-1.10054,0.608444,-0.037598,-0.635254,0.819336,2.2913629857248807,-39.34173727300675,93.6590383642336,0.6490244269371033,-0.24398984014987946,-0.23257119953632355,0.6820141077041626
370c9b1f-c64f-4767-9b78-02ca171d1de2,5f696041-e836-4b45-a531-91715e25c5e7,1760607919167138672,-2.441406,-1.281738,0.852585,-0.055176,-0.632812,0.805176,2.298489066368376,-39.3557864239416,93.64191296152167,0.6491142511367798,-0.24414534866809845,-0.2325790971517563,0.6818703413009644
370c9b1f-c64f-4767-9b78-02ca171d1de2,5f696041-e836-4b45-a531-91715e25c5e7,1760607919175178672,-2.380371,-1.037598,0.425339,-0.04248,-0.646973,0.822754,2.2983926918639552,-39.36761881615973,93.5857272153348,0.6494259238243103,-0.24432480335235596,-0.23253123462200165,0.6815255880355835
370c9b1f-c64f-4767-9b78-02ca171d1de2,5f696041-e836-4b45-a531-91715e25c5e7,1760607919183140672,-2.132416,-1.159668,0.547409,-0.035156,-0.625488,0.814941,2.3022485944003837,-39.37561584577846,93.59544259047884,0.6493608355522156,-0.2443726360797882,-0.232578307390213,0.6815544366836548
370c9b1f-c64f-4767-9b78-02ca171d1de2,5f696041-e836-4b45-a531-91715e25c5e7,1760607919191102672,-2.012253,-1.340866,0.669479,-0.035645,-0.64502,0.826172,2.304046495272138,-39.3819187427905,93.59036280576841,0.6493827700614929,-0.24442879855632782,-0.2325952798128128,0.6815076470375061
370c9b1f-c64f-4767-9b78-02ca171d1de2,5f696041-e836-4b45-a531-91715e25c5e7,1760607919199064672,-1.525879,-1.525879,0.303268,-0.040039,-0.638672,0.809082,2.293263484541302,-39.38757622501208,93.5396613771703,0.6496516466140747,-0.24449916183948517,-0.23258233070373535,0.6812305450439453
370c9b1f-c64f-4767-9b78-02ca171d1de2,5f696041-e836-4b45-a531-91715e25c5e7,1760607919207026672,-1.157761,-1.283646,0.181198,-0.046875,-0.640137,0.820801,2.2860302644892054,-39.38750917635022,93.54833161954403,0.6495855450630188,-0.24443818628787994,-0.23264142870903015,0.6812952756881714
370c9b1f-c64f-4767-9b78-02ca171d1de2,5f696041-e836-4b45-a531-91715e25c5e7,1760607919217690672,-0.793457,-1.159668,0.181198,-0.039062,-0.647461,0.812012,2.2828353922814237,-39.385044570675895,93.54980042030846,0.6495749950408936,-0.2444024533033371,-0.2326478213071823,0.6813159584999084
370c9b1f-c64f-4767-9b78-02ca171d1de2,5f696041-e836-4b45-a531-91715e25c5e7,1760607919228354672,-0.732422,-0.854492,-0.490189,-0.023926,-0.639648,0.803223,2.282057675879263,-39.37818203003712,93.51443416667612,0.6497966647148132,-0.24443131685256958,-0.2325354516506195,0.6811324954032898
370c9b1f-c64f-4767-9b78-02ca171d1de2,5f696041-e836-4b45-a531-91715e25c5e7,1760607919239018672,-1.157761,-0.123978,-1.039505,-0.039062,-0.640625,0.815918,2.2789082842070414,-39.376147280565675,93.47032956870287,0.6500562429428101,-0.24449071288108826,-0.23244696855545044,0.6808936595916748
370c9b1f-c64f-4767-9b78-02ca171d1de2,5f696041-e836-4b45-a531-91715e25c5e7,1760607919247010672,-0.547409,-0.062943,-1.161575,-0.030273,-0.625,0.82373,2.274074501675383,-39.36772377852766,93.42210593362124,0.6503489017486572,-0.24451272189617157,-0.23232078552246094,0.6806492805480957
370c9b1f-c64f-4767-9b78-02ca171d1de2,5f696041-e836-4b45-a531-91715e25c5e7,1760607919255002672,-0.305176,0.305176,-1.710892,-0.04248,-0.64502,0.822266,2.271696286035484,-39.36085374850817,93.37054431422469,0.6506633162498474,-0.24456468224525452,-0.23218290507793427,0.6803771257400513
370c9b1f-c64f-4767-9b78-02ca171d1de2,5f696041-e836-4b45-a531-91715e25c5e7,1760607919262994672,0.307083,0.364304,-1.893997,-0.02832,-0.625977,0.81543,2.2621093667053493,-39.34874310221413,93.30117738060319,0.6510786414146423,-0.24458056688308716,-0.232016459107399,0.6800306439399719
370c9b1f-c64f-4767-9b78-02ca171d1de2,5f696041-e836-4b45-a531-91715e25c5e7,1760607919270986672,0.490189,0.547409,-2.138138,-0.050293,-0.626953,0.811523,2.25597057668431,-39.334370881393255,93.21495740462188,0.6516050100326538,-0.24463817477226257,-0.23178090155124664,0.679585874080658
370c9b1f-c64f-4767-9b78-02ca171d1de2,5f696041-e836-4b45-a531-91715e25c5e7,1760607919281664672,0.183105,0.549316,-2.382278,-0.037109,-0.625488,0.804687,2.2484735253225807,-39.322080607504766,93.1925371700557,0.6517461538314819,-0.24457019567489624,-0.2317018210887909,0.6795019507408142
370c9b1f-c64f-4767-9b78-02ca171d1de2,5f696041-e836-4b45-a531-91715e25c5e7,1760607919292342672,0.549316,0.244141,-2.443314,-0.041504,-0.631348,0.810547,2.2429129467436604,-39.30642056536171,93.16847816290286,0.6519073247909546,-0.2444981336593628,-0.23158802092075348,0.6794119477272034
370c9b1f-c64f-4767-9b78-02ca171d1de2,5f696041-e836-4b45-a531-91715e25c5e7,1760607919303020672,1.10054,-0.246048,-2.199173,-0.055176,-0.625488,0.804199,2.2376950266405506,-39.28812398239883,93.12509739477672,0.6521887183189392,-0.24445229768753052,-0.231415256857872,0.6792171001434326
370c9b1f-c64f-4767-9b78-02ca171d1de2,5f696041-e836-4b45-a531-91715e25c5e7,1760607919311004672,0.854492,-0.061035,-2.077103,-0.060547,-0.623535,0.803223,2.2307265463918204,-39.27169224559577,93.07309814717966,0.6525140404701233,-0.24442383646965027,-0.23124533891677856,0.678972601890564
370c9b1f-c64f-4767-9b78-02ca171d1de2,5f696041-e836-4b45-a531-91715e25c5e7,1760607919318988672,0.551224,-0.490189,-1.893997,-0.050293,-0.61377,0.808105,2.220164673186557,-39.252107645162624,93.01361643008191,0.6528823375701904,-0.24437135457992554,-0.23106108605861664,0.6787000298500061
370c9b1f-c64f-4767-9b78-02ca171d1de2,5f696041-e836-4b45-a531-91715e25c5e7,1760607919326972672,0.551224,-0.97847,-1.588821,-0.036133,-0.620605,0.791992,2.20612574487946,-39.238286396255,92.95111067621811,0.6532504558563232,-0.24433660507202148,-0.23092488944530487,0.6784045696258545
370c9b1f-c64f-4767-9b78-02ca171d1de2,5f696041-e836-4b45-a531-91715e25c5e7,1760607919334956672,0.244141,-0.732422,-1.22261,-0.047852,-0.621582,0.803711,2.1975811429772367,-39.22597299964628,92.89218440403381,0.6536054611206055,-0.2443355768918991,-0.2307741343975067,0.678114116191864
370c9b1f-c64f-4767-9b78-02ca171d1de2,5f696041-e836-4b45-a531-91715e25c5e7,1760607919342971672,0.0,-1.220703,-1.161575,-0.053711,-0.617676,0.805664,2.190868478845988,-39.21308882052488,92.83392276967955,0.653961181640625,-0.244340717792511,-0.23061098158359528,0.6778246760368347
370c9b1f-c64f-4767-9b78-02ca171d1de2,5f696041-e836-4b45-a531-91715e25c5e7,1760607919350986672,-0.181198,-1.283646,-0.612259,-0.04541,-0.625,0.80957,2.181554371287394,-39.20245889129163,92.8421971170261,0.6539137363433838,-0.2442092001438141,-0.23061807453632355,0.6779153347015381
370c9b1f-c64f-4767-9b78-02ca171d1de2,5f696041-e836-4b45-a531-91715e25c5e7,1760607919359001672,-0.667572,-1.220703,-0.368118,-0.052246,-0.637695,0.803711,2.178402114018275,-39.200354215676775,92.84090553800532,0.6539190411567688,-0.2441813051700592,-0.23062069714069366,0.6779193878173828
370c9b1f-c64f-4767-9b78-02ca171d1de2,5f696041-e836-4b45-a531-91715e25c5e7,1760607919367016672,-0.488281,-1.525879,-0.062943,-0.047363,-0.623047,0.797363,2.1739664774186487,-39.19518015748895,92.83883578867935,0.6539322137832642,-0.24413013458251953,-0.23061059415340424,0.6779285073280334
370c9b1f-c64f-4767-9b78-02ca171d1de2,5f696041-e836-4b45-a531-91715e25c5e7,1760607919375021672,-0.915527,-1.220703,0.120163,-0.047852,-0.62207,0.800293,2.17884340279519,-39.186943777226,92.85733958037042,0.6538482308387756,-0.24407541751861572,-0.23057281970977783,0.6780420541763306
370c9b1f-c64f-4767-9b78-02ca171d1de2,5f696041-e836-4b45-a531-91715e25c5e7,1760607919383026672,-1.098633,-1.220703,0.486374,-0.046875,-0.618652,0.8125,2.180329530631018,-39.18201101380687,92.90263744729016,0.6535925269126892,-0.24396532773971558,-0.23063123226165771,0.6783082485198975
370c9b1f-c64f-4767-9b78-02ca171d1de2,5f696041-e836-4b45-a531-91715e25c5e7,1760607919391031672,-1.464844,-1.403809,0.852585,-0.02832,-0.632324,0.807617,2.1846783618018066,-39.18573030808344,92.88229635627572,0.6537145972251892,-0.244052916765213,-0.23058541119098663,0.6781746745109558
370c9b1f-c64f-4767-9b78-02ca171d1de2,5f696041-e836-4b45-a531-91715e25c5e7,1760607919399036672,-1.464844,-1.403809,1.03569,-0.034668,-0.617188,0.804199,2.1834356376340898,-39.18392436056908,92.852700173016,0.6538906693458557,-0.24409496784210205,-0.230518639087677,0.6780124306678772
370c9b1f-c64f-4767-9b78-02ca171d1de2,5f696041-e836-4b45-a531-91715e25c5e7,1760607919409724672,-1.403809,-1.159668,1.218796,-0.052734,-0.623535,0.804687,2.1907520074633324,-39.18662723302979,92.83150836146574,0.6540256142616272,-0.2441960722208023,-0.2304479330778122,0.6778699159622192
370c9b1f-c64f-4767-9b78-02ca171d1de2,5f696041-e836-4b45-a531-91715e25c5e7,1760607919420412672,-1.523972,-1.646042,1.646042,-0.027344,-0.621094,0.80957,2.1920259080875755,-39.18940589838754,92.82335909455243,0.6540710926055908,-0.24423563480377197,-0.2304399460554123,0.6778144836425781
370c9b1f-c64f-4767-9b78-02ca171d1de2,5f696041-e836-4b45-a531-91715e25c5e7,1760607919431100672,-1.464844,-1.464844,1.646042,-0.031738,-0.622559,0.813965,2.1965783205165064,-39.19233401221348,92.81284893688604,0.6541368365287781,-0.24430015683174133,-0.23040910065174103,0.6777383089065552
370c9b1f-c64f-4767-9b78-02ca171d1de2,5f696041-e836-4b45-a531-91715e25c5e7,1760607919439088672,-1.464844,-1.403809,1.340866,-0.041504,-0.628418,0.810059,2.198739981098753,-39.19422830566712,92.80120228335207,0.6542064547538757,-0.2443470060825348,-0.2303832769393921,0.6776630282402039
370c9b1f-c64f-4767-9b78-02ca171d1de2,5f696041-e836-4b45-a531-91715e25c5e7,1760607919447076672,-1.77002,-1.342773,1.401901,-0.037598,-0.623047,0.80957,2.2031231460892906,-39.19853011131709,92.81337179469672,0.6541351079940796,-0.2443726658821106,-0.23040997982025146,0.6777135729789734
370c9b1f-c64f-4767-9b78-02ca171d1de2,5f696041-e836-4b45-a531-91715e25c5e7,1760607919455064672,-1.829147,-1.646042,1.157761,-0.033203,-0.628906,0.802734,2.2000874643092367,-39.20590414307785,92.84950759888214,0.653901219367981,-0.2443234771490097,-0.23054854571819305,0.6779099702835083
370c9b1f-c64f-4767-9b78-02ca171d1de2,5f696041-e836-4b45-a531-91715e25c5e7,1760607919463052672,-2.134323,-1.466751,0.730515,-0.033203,-0.626465,0.8125,2.1947764099376195,-39.21330036117826,92.81832467913168,0.6540609002113342,-0.2443964034318924,-0.2305566817522049,0.6777268648147583
370c9b1f-c64f-4767-9b78-02ca171d1de2,5f696041-e836-4b45-a531-91715e25c5e7,1760607919473708672,-1.707077,-1.588821,0.303268,-0.034668,-0.627441,0.806152,2.186128127406089,-39.218628481355886,92.79515037456459,0.6541703939437866,-0.24442186951637268,-0.23058854043483734,0.677601158618927
370c9b1f-c64f-4767-9b78-02ca171d1de2,5f696041-e836-4b45-a531-91715e25c5e7,1760607919484364672,-1.464844,-1.403809,0.242233,-0.03125,-0.62793,0.812988,2.1783624131976325,-39.22074593009524,92.79669331375767,0.6541416049003601,-0.2443847507238388,-0.23064884543418884,0.6776218414306641
370c9b1f-c64f-4767-9b78-02ca171d1de2,5f696041-e836-4b45-a531-91715e25c5e7,1760607919495020672,-1.462936,-0.97847,-0.246048,-0.026367,-0.630371,0.816406,2.1636077980948554,-39.2235523638734,92.76866822828322,0.6542722582817078,-0.2443697154521942,-0.2306901216506958,0.6774870753288269
370c9b1f-c64f-4767-9b78-02ca171d1de2,5f696041-e836-4b45-a531-91715e25c5e7,1760607919503043672,-1.340866,-1.157761,-0.551224,-0.032227,-0.626465,0.818848,2.1533718663014634,-39.22243822730913,92.72677214183119,0.6545014381408691,-0.24438726902008057,-0.2306525558233261,0.6772721409797668
370c9b1f-c64f-4767-9b78-02ca171d1de2,5f696041-e836-4b45-a531-91715e25c5e7,1760607919511066672,-0.976562,-1.159668,-0.97847,-0.026367,-0.623535,0.814941,2.133891609247093,-39.21842057633066,92.66074102349383,0.6548600792884827,-0.24438245594501495,-0.23059898614883423,0.6769452691078186
370c9b1f-c64f-4767-9b78-02ca171d1de2,5f696041-e836-4b45-a531-91715e25c5e7,1760607919519089672,-0.732422,-0.732422,-0.8564,-0.037598,-0.614746,0.807129,2.1278920118695352,-39.20737410394912,92.61706340492333,0.6551271080970764,-0.24437262117862701,-0.230474054813385,0.6767329573631287
370c9b1f-c64f-4767-9b78-02ca171d1de2,5f696041-e836-4b45-a531-91715e25c5e7,1760607919527112672,-0.669479,-0.917435,-1.649857,-0.027344,-0.615234,0.80127,2.113145378878469,-39.20206404988167,92.58461949937183,0.655299186706543,-0.24432086944580078,-0.23045744001865387,0.676590621471405
370c9b1f-c64f-4767-9b78-02ca171d1de2,5f696041-e836-4b45-a531-91715e25c5e7,1760607919535151672,-0.488281,-0.854492,-1.771927,-0.031738,-0.627441,0.808594,2.096334560584953,-39.19728987397462,92.53555053521495,0.6555641889572144,-0.24429337680339813,-0.23042044043540955,0.6763563752174377
370c9b1f-c64f-4767-9b78-02ca171d1de2,5f696041-e836-4b45-a531-91715e25c5e7,1760607919543190672,-0.610352,-0.732422,-1.710892,-0.037109,-0.614258,0.79834,2.082586589380211,-39.190019790818006,92.51592613248377,0.6556662917137146,-0.24421069025993347,-0.23041382431983948,0.676289439201355
370c9b1f-c64f-4767-9b78-02ca171d1de2,5f696041-e836-4b45-a531-91715e25c5e7,1760607919551229672,-0.488281,-0.488281,-1.771927,-0.03418,-0.617188,0.806152,2.068451844641396,-39.179978655422474,92.53828081401232,0.6555251479148865,-0.24402563273906708,-0.2304823100566864,0.6764696836471558
370c9b1f-c64f-4767-9b78-02ca171d1de2,5f696041-e836-4b45-a531-91715e25c5e7,1760607919559268672,-0.852585,-0.246048,-2.199173,-0.02832,-0.625,0.812988,2.05239391748703,-39.174194888295695,92.4804658956076,0.6558451652526855,-0.24401450157165527,-0.23041652143001556,0.6761857867240906
370c9b1f-c64f-4767-9b78-02ca171d1de2,5f696041-e836-4b45-a531-91715e25c5e7,1760607919569865672,-0.976562,-0.427246,-1.893997,-0.047363,-0.620605,0.798828,2.0448244894257575,-39.17258774739305,92.41454327868799,0.6562219262123108,-0.24409329891204834,-0.23030985891819,0.6758280396461487
370c9b1f-c64f-4767-9b78-02ca171d1de2,5f696041-e836-4b45-a531-91715e25c5e7,1760607919580462672,-1.646042,-1.10054,-2.077103,-0.05127,-0.619141,0.8125,2.028400452938963,-39.17211314307413,92.3441285836841,0.6566050052642822,-0.2441352903842926,-0.23025110363960266,0.675460696220398
370c9b1f-c64f-4767-9b78-02ca171d1de2,5f696041-e836-4b45-a531-91715e25c5e7,1760607919591059672,-1.77002,-1.220703,-1.893997,-0.035156,-0.618652,0.806152,2.006185382038615,-39.17264761264269,92.28877366958223,0.65688556432724,-0.2441186159849167,-0.23026368021965027,0.6751896142959595
370c9b1f-c64f-4767-9b78-02ca171d1de2,5f696041-e836-4b45-a531-91715e25c5e7,1760607919599079672,-2.012253,-0.795364,-1.344681,-0.032715,-0.635254,0.799316,1.9951056676587464,-39.18401379936454,92.26604686259407,0.6569753289222717,-0.24416331946849823,-0.23034654557704926,0.6750578880310059
370c9b1f-c64f-4767-9b78-02ca171d1de2,5f696041-e836-4b45-a531-91715e25c5e7,1760607919607099672,-2.132416,-1.037598,-1.161575,-0.053711,-0.617188,0.800781,1.9916706903671664,-39.19057532863609,92.22029690075937,0.6572252511978149,-0.2442721575498581,-0.23030784726142883,0.6747884750366211
370c9b1f-c64f-4767-9b78-02ca171d1de2,5f696041-e836-4b45-a531-91715e25c5e7,1760607919615119672,-2.258301,-1.037598,-1.039505,-0.047363,-0.632324,0.803223,1.9861333709855211,-39.20101095655822,92.19067588692097,0.6573684215545654,-0.24435816705226898,-0.23033863306045532,0.6746073961257935
370c9b1f-c64f-4767-9b78-02ca171d1de2,5f696041-e836-4b45-a531-91715e25c5e7,1760607919623139672,-2.380371,-1.159668,-0.612259,-0.05127,-0.62793,0.80957,1.9823596607888718,-39.210975218806986,92.19049866869882,0.6573426723480225,-0.2443927377462387,-0.23041926324367523,0.6745924353599548
370c9b1f-c64f-4767-9b78-02ca171d1de2,5f696041-e836-4b45-a531-91715e25c5e7,1760607919633768672,-2.500534,-1.466751,-0.123978,-0.039551,-0.625977,0.798828,1.976492613279261,-39.22291614878424,92.16627391902128,0.6574504375457764,-0.24447451531887054,-0.2304723709821701,0.6744397282600403
370c9b1f-c64f-4767-9b78-02ca171d1de2,5f696041-e836-4b45-a531-91715e25c5e7,1760607919644397672,-2.620697,-1.89209,0.181198,-0.035645,-0.619629,0.810547,1.9675271663434788,-39.233348363010656,92.15910010037376,0.6574544906616211,-0.24449525773525238,-0.23057062923908234,0.6743947267532349
370c9b1f-c64f-4767-9b78-02ca171d1de2,5f696041-e836-4b45-a531-91715e25c5e7,1760607919655026672,-2.744675,-2.443314,0.120163,-0.036133,-0.624023,0.815918,1.9580148253255023,-39.24283964755408,92.19570010994451,0.6572015881538391,-0.24441933631896973,-0.23075979948043823,0.674604058265686
370c9b1f-c64f-4767-9b78-02ca171d1de2,5f696041-e836-4b45-a531-91715e25c5e7,1760607919663027672,-2.500534,-2.382278,0.425339,-0.034668,-0.617676,0.805664,1.9460117321886516,-39.25023159797422,92.21615876758828,0.6570426821708679,-0.24434927105903625,-0.23091629147529602,0.6747307777404785
370c9b1f-c64f-4767-9b78-02ca171d1de2,5f696041-e836-4b45-a531-91715e25c5e7,1760607919671028672,-2.317429,-2.260208,0.608444,-0.036133,-0.618164,0.803711,1.9397869041522353,-39.258629349957964,92.2120121967811,0.6570383310317993,-0.2443685382604599,-0.23099316656589508,0.6747016906738281
370c9b1f-c64f-4767-9b78-02ca171d1de2,5f696041-e836-4b45-a531-91715e25c5e7,1760607919679029672,-2.195358,-1.955032,0.91362,-0.045898,-0.629395,0.817871,1.9376231383903406,-39.26363027838457,92.21676688515129,0.6569963097572327,-0.24437449872493744,-0.23104549944400787,0.6747226119041443
370c9b1f-c64f-4767-9b78-02ca171d1de2,5f696041-e836-4b45-a531-91715e25c5e7,1760607919687030672,-2.197266,-2.01416,0.91362,-0.04248,-0.627441,0.801758,1.9358078769643514,-39.27254475937845,92.20947348512134,0.6570183634757996,-0.24442899227142334,-0.23109345138072968,0.6746649742126465
370c9b1f-c64f-4767-9b78-02ca171d1de2,5f696041-e836-4b45-a531-91715e25c5e7,1760607919695040672,-2.317429,-2.260208,0.79155,-0.035645,-0.621582,0.803711,1.9294967031213264,-39.28075416143335,92.17786381963305,0.6571758389472961,-0.24450205266475677,-0.2311110943555832,0.6744791269302368
