section id,recording id,timestamp [ns],gyro x [deg/s],gyro y [deg/s],gyro z [deg/s],acceleration x [g],acceleration y [g],acceleration z [g],roll [deg],pitch [deg],yaw [deg],quaternion w,quaternion x,quaternion y,quaternion z
f18fa8bf-33ac-4d86-a008-814929057197,06de69ea-30e8-4081-8e83-788a0374f8b7,1760443608231669505,-5.506516,-1.688004,0.413895,-0.047363,-0.359863,0.945312,3.242708330417933,-21.042756293585935,122.49682909332569,0.47726601362228394,-0.11218782514333725,-0.14664484560489655,0.859142541885376
f18fa8bf-33ac-4d86-a008-814929057197,06de69ea-30e8-4081-8e83-788a0374f8b7,1760443608242347505,-5.569458,-1.930237,0.902176,-0.071777,-0.368164,0.949219,3.230797944892069,-21.09084192490425,122.28608386212493,0.47880321741104126,-0.11256526410579681,-0.14685027301311493,0.8582022190093994
f18fa8bf-33ac-4d86-a008-814929057197,06de69ea-30e8-4081-8e83-788a0374f8b7,1760443608253025505,-5.632401,-1.504898,0.597,-0.056641,-0.378906,0.952637,3.223954584807927,-21.139665410073036,122.0732950773504,0.4803597927093506,-0.11298739910125732,-0.147037073969841,0.8572443127632141
f18fa8bf-33ac-4d86-a008-814929057197,06de69ea-30e8-4081-8e83-788a0374f8b7,1760443608261029505,-5.325317,-1.38092,0.654221,-0.055664,-0.355469,0.953125,3.2022028037035497,-21.23209971370207,121.6105366572744,0.48373696208000183,-0.11380092799663544,-0.14736537635326385,0.8551785349845886
f18fa8bf-33ac-4d86-a008-814929057197,06de69ea-30e8-4081-8e83-788a0374f8b7,1760443608269034505,-4.898071,-1.319885,0.165939,-0.046875,-0.364258,0.965332,3.190587632048601,-21.268953347898268,121.48885397988126,0.48460859060287476,-0.11402370780706406,-0.14757005870342255,0.8546198010444641
f18fa8bf-33ac-4d86-a008-814929057197,06de69ea-30e8-4081-8e83-788a0374f8b7,1760443608277039505,-4.776001,-1.38092,0.413895,-0.061035,-0.368164,0.958008,3.1847533627318896,-21.307654565497458,121.34176507435355,0.485675185918808,-0.11433057487010956,-0.14773842692375183,0.8539438843727112
f18fa8bf-33ac-4d86-a008-814929057197,06de69ea-30e8-4081-8e83-788a0374f8b7,1760443608285044505,-4.043579,-1.502991,0.291824,-0.045898,-0.372559,0.963867,3.172515527484447,-21.34164109872009,121.13019183804974,0.48721516132354736,-0.1146538108587265,-0.14783354103565216,0.8530070781707764
f18fa8bf-33ac-4d86-a008-814929057197,06de69ea-30e8-4081-8e83-788a0374f8b7,1760443608293049505,-4.289627,-1.016617,0.165939,-0.053711,-0.365723,0.979004,3.1643756674647316,-21.372139787516435,120.9747787807394,0.48834308981895447,-0.11492125689983368,-0.14794078469276428,0.8523072600364685
f18fa8bf-33ac-4d86-a008-814929057197,06de69ea-30e8-4081-8e83-788a0374f8b7,1760443608301054505,-3.738403,-1.502991,-0.196457,-0.062012,-0.37793,0.960937,3.1551709923874403,-21.40027277297391,120.80323041763619,0.4895898997783661,-0.1151922196149826,-0.14801821112632751,0.8515415787696838
f18fa8bf-33ac-4d86-a008-814929057197,06de69ea-30e8-4081-8e83-788a0374f8b7,1760443608309059505,-3.128052,-1.075745,-0.196457,-0.047852,-0.369629,0.972168,3.1446755928318586,-21.42306788272432,120.59677445668233,0.4910961091518402,-0.11547672748565674,-0.14802563190460205,0.850633978843689
f18fa8bf-33ac-4d86-a008-814929057197,06de69ea-30e8-4081-8e83-788a0374f8b7,1760443608317064505,-2.27356,-1.014709,-0.627518,-0.051758,-0.380859,0.965332,3.1325867019220777,-21.44374317854914,120.3765576411584,0.49270185828208923,-0.11575865745544434,-0.14800964295864105,0.8496692776679993
f18fa8bf-33ac-4d86-a008-814929057197,06de69ea-30e8-4081-8e83-788a0374f8b7,1760443608327726505,-1.905441,-1.199722,-0.501633,-0.055664,-0.39502,0.96875,3.122023337540605,-21.461733977526823,120.14049395226843,0.4944266080856323,-0.11606132984161377,-0.14795047044754028,0.8486357927322388
f18fa8bf-33ac-4d86-a008-814929057197,06de69ea-30e8-4081-8e83-788a0374f8b7,1760443608338388505,-1.35994,-1.199722,-0.810623,-0.058594,-0.386719,0.954102,3.1091993891087,-21.478945331465397,119.94915263522272,0.49581587314605713,-0.11628648638725281,-0.14794005453586578,0.847795844078064
f18fa8bf-33ac-4d86-a008-814929057197,06de69ea-30e8-4081-8e83-788a0374f8b7,1760443608349050505,-0.686646,-1.38092,-0.684738,-0.041992,-0.401367,0.958984,3.0937220651732082,-21.490975977466395,119.74748440998091,0.4972797632217407,-0.11648356914520264,-0.1478917896747589,0.8469193577766418
f18fa8bf-33ac-4d86-a008-814929057197,06de69ea-30e8-4081-8e83-788a0374f8b7,1760443608359696505,-0.50354,-1.38092,-0.627518,-0.056641,-0.398438,0.94873,3.0887697651537365,-21.496440091193787,119.53017267352915,0.4988752007484436,-0.11675063520669937,-0.14773276448249817,0.8459715247154236
f18fa8bf-33ac-4d86-a008-814929057197,06de69ea-30e8-4081-8e83-788a0374f8b7,1760443608370343505,-0.566483,-1.867294,-0.928879,-0.053711,-0.381348,0.952148,3.0742039644830275,-21.50505380407036,119.41262824862883,0.499718576669693,-0.11683155596256256,-0.14774037897586823,0.8454611301422119
f18fa8bf-33ac-4d86-a008-814929057197,06de69ea-30e8-4081-8e83-788a0374f8b7,1760443608380990505,-0.139236,-1.688004,-0.627518,-0.058105,-0.369629,0.950684,3.0612937333625347,-21.50944300008178,119.26634481093812,0.500778079032898,-0.11694373190402985,-0.14768008887767792,0.8448290228843689
f18fa8bf-33ac-4d86-a008-814929057197,06de69ea-30e8-4081-8e83-788a0374f8b7,1760443608389028505,-0.259399,-1.991272,-0.379562,-0.062012,-0.37793,0.960937,3.046892221037146,-21.51290817379589,119.0588409353912,0.5022863745689392,-0.11711983382701874,-0.14755688607692719,0.8439302444458008
f18fa8bf-33ac-4d86-a008-814929057197,06de69ea-30e8-4081-8e83-788a0374f8b7,1760443608397066505,-0.566483,-1.443863,-0.196457,-0.056152,-0.364746,0.952637,3.031222777204305,-21.514968873897416,118.84040764655381,0.5038726925849915,-0.11729452759027481,-0.14741751551628113,0.8429841995239258
f18fa8bf-33ac-4d86-a008-814929057197,06de69ea-30e8-4081-8e83-788a0374f8b7,1760443608405104505,-0.747681,-1.441956,-0.074387,-0.043457,-0.370117,0.962891,3.0181116730783195,-21.518004444451552,118.60412482025625,0.5055910348892212,-0.11751507967710495,-0.14725562930107117,0.8419523239135742
f18fa8bf-33ac-4d86-a008-814929057197,06de69ea-30e8-4081-8e83-788a0374f8b7,1760443608413142505,-0.076294,-0.892639,-0.257492,-0.047363,-0.37793,0.951172,3.011083947397457,-21.520032405510346,118.41612601789173,0.5069613456726074,-0.11771374940872192,-0.14710870385169983,0.8411258459091187
f18fa8bf-33ac-4d86-a008-814929057197,06de69ea-30e8-4081-8e83-788a0374f8b7,1760443608423777505,-0.076294,-0.587463,-0.196457,-0.040039,-0.393555,0.957031,3.0134688298357473,-21.521645044534367,118.22750351048806,0.50834721326828,-0.11798026412725449,-0.14691606163978577,0.8402853012084961
f18fa8bf-33ac-4d86-a008-814929057197,06de69ea-30e8-4081-8e83-788a0374f8b7,1760443608434412505,-0.137329,-0.404358,-0.440598,-0.052734,-0.373047,0.963379,3.008526848063566,-21.525115093895497,118.02468999434977,0.5098250508308411,-0.11821908503770828,-0.14675457775592804,0.839384138584137
f18fa8bf-33ac-4d86-a008-814929057197,06de69ea-30e8-4081-8e83-788a0374f8b7,1760443608445047505,0.350952,-0.465393,-0.684738,-0.044922,-0.371582,0.955566,3.0099587357872157,-21.52499524607009,117.85296632397356,0.511084258556366,-0.11844882369041443,-0.14656998217105865,0.8386179208755493
f18fa8bf-33ac-4d86-a008-814929057197,06de69ea-30e8-4081-8e83-788a0374f8b7,1760443608455710505,0.413895,-0.528336,-0.379562,-0.044434,-0.388184,0.969238,3.0057357849789392,-21.52154743085739,117.42014111409476,0.5142450332641602,-0.11895553767681122,-0.14611516892910004,0.8366910815238953
f18fa8bf-33ac-4d86-a008-814929057197,06de69ea-30e8-4081-8e83-788a0374f8b7,1760443608466373505,0.593185,-0.833511,-0.810623,-0.06543,-0.381348,0.95459,3.009146319387995,-21.523072683034634,117.22857222837949,0.5156463980674744,-0.11923126876354218,-0.14591194689273834,0.8358243703842163
f18fa8bf-33ac-4d86-a008-814929057197,06de69ea-30e8-4081-8e83-788a0374f8b7,1760443608477036505,0.593185,-1.073837,-0.501633,-0.056641,-0.376465,0.93457,3.0009248442455942,-21.523279431456906,117.09400168387789,0.5166170001029968,-0.11934353411197662,-0.14581041038036346,0.8352264761924744
f18fa8bf-33ac-4d86-a008-814929057197,06de69ea-30e8-4081-8e83-788a0374f8b7,1760443608487707505,0.413895,-1.199722,-1.115799,-0.053711,-0.375,0.950684,3.0005587998941143,-21.52352150837409,116.89409254336003,0.5180726647377014,-0.11959613114595413,-0.1456054151058197,0.8343240022659302
f18fa8bf-33ac-4d86-a008-814929057197,06de69ea-30e8-4081-8e83-788a0374f8b7,1760443608498379505,0.045776,-0.953674,-1.050949,-0.047363,-0.364258,0.93457,2.9878816934314774,-21.51900323186775,116.67951122016119,0.5196210145950317,-0.11975622922182083,-0.1454056352376938,0.8333724141120911
f18fa8bf-33ac-4d86-a008-814929057197,06de69ea-30e8-4081-8e83-788a0374f8b7,1760443608509051505,-0.074387,-1.016617,-1.298904,-0.052246,-0.371582,0.949707,2.975809170779639,-21.519304793228756,116.4693968363472,0.5211327075958252,-0.11993629485368729,-0.14524291455745697,0.8324304223060608
f18fa8bf-33ac-4d86-a008-814929057197,06de69ea-30e8-4081-8e83-788a0374f8b7,1760443608517043505,-0.566483,-1.199722,-1.173019,-0.049316,-0.376465,0.951172,2.9490301809811768,-21.526014235388402,116.07657123849815,0.5239448547363281,-0.12026956677436829,-0.14500229060649872,0.8306571841239929
f18fa8bf-33ac-4d86-a008-814929057197,06de69ea-30e8-4081-8e83-788a0374f8b7,1760443608525034505,-1.113892,-1.319885,-1.298904,-0.038574,-0.372559,0.943848,2.930391310764441,-21.535925436783536,115.87597558989522,0.5253678560256958,-0.12043299525976181,-0.14494919776916504,0.8297434449195862
f18fa8bf-33ac-4d86-a008-814929057197,06de69ea-30e8-4081-8e83-788a0374f8b7,1760443608533025505,-1.480103,-1.13678,-1.234055,-0.061035,-0.366699,0.944336,2.9206056180533553,-21.55069142797032,115.71429429019138,0.5265156030654907,-0.12063340097665787,-0.14493156969547272,0.828989565372467
f18fa8bf-33ac-4d86-a008-814929057197,06de69ea-30e8-4081-8e83-788a0374f8b7,1760443608541016505,-1.602173,-0.709534,-1.298904,-0.058594,-0.367188,0.938477,2.912273218831185,-21.56412666759829,115.6039702076311,0.5272937417030334,-0.12077351659536362,-0.14495143294334412,0.8284709453582764
f18fa8bf-33ac-4d86-a008-814929057197,06de69ea-30e8-4081-8e83-788a0374f8b7,1760443608551698505,-2.090454,-0.770569,-1.356125,-0.060059,-0.373535,0.944824,2.9055685962499607,-21.583827744483727,115.39271893236409,0.5287981033325195,-0.1210816502571106,-0.14490261673927307,0.8274750709533691
f18fa8bf-33ac-4d86-a008-814929057197,06de69ea-30e8-4081-8e83-788a0374f8b7,1760443608562380505,-2.031326,-1.016617,-1.298904,-0.049316,-0.371582,0.942383,2.897796804743158,-21.605313011054907,115.19566856431808,0.5301955342292786,-0.12137249112129211,-0.1448860764503479,0.8265406489372253
f18fa8bf-33ac-4d86-a008-814929057197,06de69ea-30e8-4081-8e83-788a0374f8b7,1760443608573062505,-2.458572,-1.016617,-1.41716,-0.043945,-0.369629,0.943848,2.8837660425522404,-21.628921937974923,115.03453700587053,0.5313230752944946,-0.12158282101154327,-0.14495150744915009,0.8257738351821899
f18fa8bf-33ac-4d86-a008-814929057197,06de69ea-30e8-4081-8e83-788a0374f8b7,1760443608583722505,-2.639771,-0.953674,-0.928879,-0.056152,-0.365723,0.941894,2.8776040707118637,-21.651963509001007,114.82839224396417,0.5327838063240051,-0.12190455943346024,-0.14492806792259216,0.8247888088226318
f18fa8bf-33ac-4d86-a008-814929057197,06de69ea-30e8-4081-8e83-788a0374f8b7,1760443608594385505,-2.639771,-1.13678,-0.928879,-0.056152,-0.388672,0.944336,2.8725865800072183,-21.674993513357812,114.61619845492214,0.5342876315116882,-0.12224244326353073,-0.14489206671714783,0.8237716555595398
f18fa8bf-33ac-4d86-a008-814929057197,06de69ea-30e8-4081-8e83-788a0374f8b7,1760443608605048505,-2.944946,-1.25885,-1.050949,-0.059082,-0.383789,0.945801,2.866739755182407,-21.704995286945206,114.40422975447359,0.5357818603515625,-0.12260647863149643,-0.1449097841978073,0.82274329662323
f18fa8bf-33ac-4d86-a008-814929057197,06de69ea-30e8-4081-8e83-788a0374f8b7,1760443608613056505,-3.433228,-0.831604,-0.562668,-0.055176,-0.379883,0.936523,2.8540705834561,-21.764430743583823,114.0110116383217,0.5385433435440063,-0.12328749895095825,-0.1449761688709259,0.8208246827125549
f18fa8bf-33ac-4d86-a008-814929057197,06de69ea-30e8-4081-8e83-788a0374f8b7,1760443608621066505,-3.372192,-1.13678,-0.257492,-0.063965,-0.375977,0.939453,2.8523962412780994,-21.796462355413286,113.81277276702811,0.5399373173713684,-0.12367486953735352,-0.14500117301940918,0.8198456168174744
f18fa8bf-33ac-4d86-a008-814929057197,06de69ea-30e8-4081-8e83-788a0374f8b7,1760443608629076505,-3.679276,-0.833511,-0.139236,-0.052246,-0.387695,0.941894,2.8455907110803915,-21.83105686112322,113.66233141327693,0.5409795045852661,-0.123977430164814,-0.14511965215206146,0.8190915584564209
f18fa8bf-33ac-4d86-a008-814929057197,06de69ea-30e8-4081-8e83-788a0374f8b7,1760443608637086505,-3.61824,-1.199722,-0.440598,-0.062988,-0.376953,0.941894,2.8438020597062104,-21.86444747473961,113.58371561981411,0.5415147542953491,-0.12421967834234238,-0.1452830731868744,0.8186721205711365
f18fa8bf-33ac-4d86-a008-814929057197,06de69ea-30e8-4081-8e83-788a0374f8b7,1760443608647730505,-3.799438,-1.075745,-0.379562,-0.051758,-0.387695,0.948242,2.83833251799285,-21.90024578002221,113.41905054772748,0.5426574945449829,-0.12455635517835617,-0.1453874409198761,0.817845344543457
f18fa8bf-33ac-4d86-a008-814929057197,06de69ea-30e8-4081-8e83-788a0374f8b7,1760443608658374505,-3.616333,-0.953674,0.291824,-0.060547,-0.37793,0.951172,2.836447332725143,-21.931997897608134,113.25924966968627,0.5437717437744141,-0.12489403784275055,-0.1454503834247589,0.8170421719551086
f18fa8bf-33ac-4d86-a008-814929057197,06de69ea-30e8-4081-8e83-788a0374f8b7,1760443608669018505,-3.921509,-1.13678,0.349045,-0.057129,-0.382812,0.961426,2.834580009303741,-21.96579164337781,113.11657103602111,0.5447613000869751,-0.12522007524967194,-0.14554591476917267,0.816315770149231
f18fa8bf-33ac-4d86-a008-814929057197,06de69ea-30e8-4081-8e83-788a0374f8b7,1760443608679666505,-3.311157,-1.075745,0.780106,-0.065918,-0.400879,0.959473,2.833035127999426,-21.99548217601308,112.97124608073715,0.545772135257721,-0.12553294003009796,-0.14560702443122864,0.8155812621116638
f18fa8bf-33ac-4d86-a008-814929057197,06de69ea-30e8-4081-8e83-788a0374f8b7,1760443608690316505,-3.311157,-1.25885,0.963211,-0.079102,-0.395996,0.956055,2.835341140612525,-22.029376637105276,112.81932506955961,0.5468305945396423,-0.12590168416500092,-0.1456720232963562,0.8148034811019897
f18fa8bf-33ac-4d86-a008-814929057197,06de69ea-30e8-4081-8e83-788a0374f8b7,1760443608700966505,-3.801346,-1.688004,1.020432,-0.062988,-0.399902,0.958496,2.8375306817950325,-22.062491209627073,112.64759435017909,0.5480290651321411,-0.12629149854183197,-0.14570944011211395,0.8139308094978333
f18fa8bf-33ac-4d86-a008-814929057197,06de69ea-30e8-4081-8e83-788a0374f8b7,1760443608709008505,-3.189087,-1.564026,1.451492,-0.072266,-0.404297,0.955566,2.839581430741821,-22.129481697489577,112.36179692268463,0.5500094294548035,-0.12698599696159363,-0.14586225152015686,0.8124582171440125
f18fa8bf-33ac-4d86-a008-814929057197,06de69ea-30e8-4081-8e83-788a0374f8b7,1760443608717050505,-3.18718,-1.993179,1.630783,-0.063477,-0.402832,0.949219,2.8406265164589883,-22.162441008158115,112.21038187476333,0.551058828830719,-0.12734225392341614,-0.14592429995536804,0.8116798400878906
f18fa8bf-33ac-4d86-a008-814929057197,06de69ea-30e8-4081-8e83-788a0374f8b7,1760443608725092505,-3.49617,-2.11525,2.244949,-0.077637,-0.396973,0.957519,2.8432954471118577,-22.197769785814298,112.09436715174888,0.5518568158149719,-0.12767651677131653,-0.1460341513156891,0.8110651969909668
f18fa8bf-33ac-4d86-a008-814929057197,06de69ea-30e8-4081-8e83-788a0374f8b7,1760443608733134505,-3.128052,-2.723694,2.183914,-0.082031,-0.412598,0.964844,2.842482777044907,-22.231222117217236,112.02804792679382,0.5522995591163635,-0.1279141902923584,-0.14620238542556763,0.8106959462165833
f18fa8bf-33ac-4d86-a008-814929057197,06de69ea-30e8-4081-8e83-788a0374f8b7,1760443608743789505,-3.005981,-2.906799,2.973557,-0.060547,-0.406738,0.956055,2.838267227702292,-22.260679686399616,111.93082766832629,0.5529592037200928,-0.12814848124980927,-0.1463238000869751,0.8101872801780701
f18fa8bf-33ac-4d86-a008-814929057197,06de69ea-30e8-4081-8e83-788a0374f8b7,1760443608754444505,-2.761841,-3.27301,2.916336,-0.062988,-0.398926,0.95459,2.8269856939684956,-22.288171942733534,111.77975831664435,0.5539912581443787,-0.12839260697364807,-0.14640475809574127,0.8094285726547241
f18fa8bf-33ac-4d86-a008-814929057197,06de69ea-30e8-4081-8e83-788a0374f8b7,1760443608765099505,-2.824783,-3.641129,3.343582,-0.051758,-0.401367,0.969238,2.811065397867745,-22.311684792254557,111.63100670193255,0.5550029873847961,-0.12858246266841888,-0.14648211002349854,0.8086910247802734
f18fa8bf-33ac-4d86-a008-814929057197,06de69ea-30e8-4081-8e83-788a0374f8b7,1760443608775721505,-1.722336,-5.289078,3.709793,-0.065918,-0.395996,0.97168,2.7941353636702044,-22.33099998681598,111.48591754367257,0.5559898018836975,-0.1287408471107483,-0.14653842151165009,0.8079774975776672
f18fa8bf-33ac-4d86-a008-814929057197,06de69ea-30e8-4081-8e83-788a0374f8b7,1760443608786344505,-0.930786,-5.714417,4.133224,-0.05127,-0.394043,0.97998,2.771128428895361,-22.33917406930994,111.34492703611537,0.5569477081298828,-0.12879814207553864,-0.14654970169067383,0.8073062896728516
f18fa8bf-33ac-4d86-a008-814929057197,06de69ea-30e8-4081-8e83-788a0374f8b7,1760443608796967505,-0.137329,-6.568909,4.564285,-0.068359,-0.390625,0.977051,2.7395545060756192,-22.33493701690113,111.2068443371542,0.557883083820343,-0.12873204052448273,-0.14651809632778168,0.80667644739151
f18fa8bf-33ac-4d86-a008-814929057197,06de69ea-30e8-4081-8e83-788a0374f8b7,1760443608804999505,0.961304,-7.484436,5.174637,-0.056641,-0.379883,0.961426,2.667685365934534,-22.314007929503834,111.03392853042999,0.5590243935585022,-0.12834681570529938,-0.14652617275714874,0.8059459328651428
f18fa8bf-33ac-4d86-a008-814929057197,06de69ea-30e8-4081-8e83-788a0374f8b7,1760443608813031505,1.142502,-8.218765,5.662918,-0.056152,-0.370605,0.963379,2.620001687202075,-22.293377062033237,110.95749310015391,0.5595172643661499,-0.1280098706483841,-0.14652740955352783,0.8056572675704956
f18fa8bf-33ac-4d86-a008-814929057197,06de69ea-30e8-4081-8e83-788a0374f8b7,1760443608821063505,1.264572,-8.581161,6.334305,-0.05127,-0.380859,0.942383,2.569295248945817,-22.273868326048152,110.86307122656888,0.5601316690444946,-0.12768012285232544,-0.1465318202972412,0.8052816987037659
f18fa8bf-33ac-4d86-a008-814929057197,06de69ea-30e8-4081-8e83-788a0374f8b7,1760443608829095505,1.63269,-9.254456,6.700516,-0.036133,-0.375977,0.955078,2.5097417499386205,-22.24986097802056,110.81318619536056,0.5604252219200134,-0.12720954418182373,-0.14659780263900757,0.80513995885849
f18fa8bf-33ac-4d86-a008-814929057197,06de69ea-30e8-4081-8e83-788a0374f8b7,1760443608839753505,1.693726,-9.376526,7.188797,-0.043457,-0.382812,0.937988,2.450398247602338,-22.229740739797784,110.74511633480795,0.5608436465263367,-0.12678252160549164,-0.14667052030563354,0.8049026727676392
f18fa8bf-33ac-4d86-a008-814929057197,06de69ea-30e8-4081-8e83-788a0374f8b7,1760443608850411505,1.878738,-8.890152,7.551193,-0.03125,-0.358398,0.943848,2.394430197648432,-22.201181783711686,110.63989994549272,0.5615339279174805,-0.12638595700263977,-0.14662668108940125,0.8044916391372681
f18fa8bf-33ac-4d86-a008-814929057197,06de69ea-30e8-4081-8e83-788a0374f8b7,1760443608861069505,1.325607,-8.401871,7.921219,-0.024902,-0.368164,0.935547,2.3446573704827554,-22.180631773773786,110.51949901202819,0.5623319149017334,-0.12609107792377472,-0.14659307897090912,0.8039864897727966
f18fa8bf-33ac-4d86-a008-814929057197,06de69ea-30e8-4081-8e83-788a0374f8b7,1760443608871794505,0.413895,-6.26564,7.799149,-0.016113,-0.373535,0.941406,2.3002976101355426,-22.165888447150138,110.40040957119473,0.5631224513053894,-0.12586070597171783,-0.14657601714134216,0.8034722208976746
f18fa8bf-33ac-4d86-a008-814929057197,06de69ea-30e8-4081-8e83-788a0374f8b7,1760443608882521505,0.471115,-5.960464,7.921219,-0.019531,-0.365234,0.953125,2.261989198431883,-22.154191085840008,110.29138290250974,0.5638472437858582,-0.1256747543811798,-0.14656229317188263,0.8029953837394714
f18fa8bf-33ac-4d86-a008-814929057197,06de69ea-30e8-4081-8e83-788a0374f8b7,1760443608893248505,0.167847,-5.409241,7.616043,-0.013184,-0.373535,0.935059,2.2302306701239494,-22.14187253695159,110.18908082981808,0.5645334124565125,-0.12552310526371002,-0.1465197652578354,0.8025446534156799
f18fa8bf-33ac-4d86-a008-814929057197,06de69ea-30e8-4081-8e83-788a0374f8b7,1760443608901204505,-0.137329,-4.554749,8.165359,-0.021973,-0.376465,0.939453,2.1901876950840635,-22.127383820164553,110.10299496551531,0.565096914768219,-0.1252821534872055,-0.1465209424495697,0.8021854162216187
f18fa8bf-33ac-4d86-a008-814929057197,06de69ea-30e8-4081-8e83-788a0374f8b7,1760443608909163505,-0.383377,-3.458023,7.921219,-0.023438,-0.385742,0.94043,2.180673450055612,-22.129481151218457,110.07216839592175,0.5652987957000732,-0.1252652108669281,-0.14654892683029175,0.802040696144104
f18fa8bf-33ac-4d86-a008-814929057197,06de69ea-30e8-4081-8e83-788a0374f8b7,1760443608917122505,-0.808716,-2.967834,7.677078,-0.021484,-0.382812,0.938477,2.174396572007747,-22.13608645354102,109.96896065992063,0.5660074353218079,-0.12538552284240723,-0.14651349186897278,0.8015284538269043
f18fa8bf-33ac-4d86-a008-814929057197,06de69ea-30e8-4081-8e83-788a0374f8b7,1760443608925081505,-0.991821,-1.869202,7.368088,-0.033203,-0.382324,0.937012,2.1815451268938437,-22.147000221975365,109.88621856611417,0.5665861368179321,-0.12559466063976288,-0.1464642733335495,0.8010956645011902
f18fa8bf-33ac-4d86-a008-814929057197,06de69ea-30e8-4081-8e83-788a0374f8b7,1760443608935778505,-1.602173,-1.014709,7.246017,-0.014648,-0.387207,0.943848,2.1924019354441464,-22.158099109021148,109.79089556783056,0.5672569870948792,-0.12584666907787323,-0.14638395607471466,0.8005958795547485
f18fa8bf-33ac-4d86-a008-814929057197,06de69ea-30e8-4081-8e83-788a0374f8b7,1760443608946475505,-1.665115,-0.528336,6.761551,-0.020996,-0.396484,0.943359,2.205416116036183,-22.17599092932621,109.67484335125715,0.5680692195892334,-0.1261734515428543,-0.1463174819946289,0.7999805212020874
f18fa8bf-33ac-4d86-a008-814929057197,06de69ea-30e8-4081-8e83-788a0374f8b7,1760443608957172505,-1.907349,0.083923,5.723953,-0.026367,-0.399414,0.946289,2.224928299841978,-22.199824528684637,109.56247766529786,0.5688584446907043,-0.12657004594802856,-0.146263986825943,0.7993665337562561
f18fa8bf-33ac-4d86-a008-814929057197,06de69ea-30e8-4081-8e83-788a0374f8b7,1760443608967811505,-1.480103,0.999451,4.4384,-0.023437,-0.397461,0.958496,2.247619929544341,-22.218356461870165,109.46063930092164,0.5695821046829224,-0.126949280500412,-0.1461685448884964,0.7988083958625793
f18fa8bf-33ac-4d86-a008-814929057197,06de69ea-30e8-4081-8e83-788a0374f8b7,1760443608978450505,-0.993729,1.119614,3.343582,-0.030273,-0.42041,0.959473,2.265477996185977,-22.2338969497165,109.37727987890577,0.5701728463172913,-0.12725648283958435,-0.14609616994857788,0.7983511686325073
f18fa8bf-33ac-4d86-a008-814929057197,06de69ea-30e8-4081-8e83-788a0374f8b7,1760443608989089505,-0.62561,1.365662,2.855301,-0.037109,-0.402832,0.957519,2.285933079084036,-22.2486506045795,109.26333722089151,0.5709801316261292,-0.12761680781841278,-0.1459709256887436,0.7977393269538879
f18fa8bf-33ac-4d86-a008-814929057197,06de69ea-30e8-4081-8e83-788a0374f8b7,1760443608999718505,-0.442505,1.548767,1.813889,-0.039062,-0.411621,0.956543,2.3233977235820533,-22.263615414767273,109.01792232930089,0.5727223753929138,-0.12826348841190338,-0.1456146389245987,0.7964508533477783
f18fa8bf-33ac-4d86-a008-814929057197,06de69ea-30e8-4081-8e83-788a0374f8b7,1760443609010348505,0.411987,1.548767,0.902176,-0.041504,-0.408691,0.955078,2.3409256988149894,-22.268387227627606,108.89212910138322,0.5736145973205566,-0.1285686194896698,-0.14541934430599213,0.7957949042320251
f18fa8bf-33ac-4d86-a008-814929057197,06de69ea-30e8-4081-8e83-788a0374f8b7,1760443609020978505,0.776291,1.73378,0.108719,-0.043945,-0.418457,0.957519,2.3558463677894195,-22.26671072680499,108.69756237883284,0.5749852657318115,-0.12891051173210144,-0.14511427283287048,0.7948055267333984
f18fa8bf-33ac-4d86-a008-814929057197,06de69ea-30e8-4081-8e83-788a0374f8b7,1760443609029002505,2.119064,1.913071,-1.48201,-0.052246,-0.413086,0.957519,2.374737954779023,-22.259438839242677,108.49496090686972,0.5764195919036865,-0.1292615681886673,-0.14474043250083923,0.7937771081924438
f18fa8bf-33ac-4d86-a008-814929057197,06de69ea-30e8-4081-8e83-788a0374f8b7,1760443609037027505,2.670288,1.670837,-1.970291,-0.050293,-0.398438,0.966797,2.3885393021489874,-22.244236662286827,108.28110636449237,0.5779301524162292,-0.12955112755298615,-0.14432355761528015,0.7927067279815674
f18fa8bf-33ac-4d86-a008-814929057197,06de69ea-30e8-4081-8e83-788a0374f8b7,1760443609045052505,3.952026,1.487732,-2.458572,-0.054199,-0.397461,0.963379,2.4039655103157487,-22.222059921338595,108.10747588671094,0.5791686773300171,-0.12976543605327606,-0.1438949704170227,0.7918452024459839
f18fa8bf-33ac-4d86-a008-814929057197,06de69ea-30e8-4081-8e83-788a0374f8b7,1760443609053077505,5.2948,0.572205,-3.065109,-0.052734,-0.39502,0.96875,2.4155465711412547,-22.187511457988762,107.92877923862645,0.5804464221000671,-0.1298965960741043,-0.143393874168396,0.7909784913063049
f18fa8bf-33ac-4d86-a008-814929057197,06de69ea-30e8-4081-8e83-788a0374f8b7,1760443609063735505,6.881714,0.022888,-3.004074,-0.065918,-0.404297,0.969238,2.412844943760467,-22.138827543557316,107.73627893403871,0.5818120241165161,-0.12987427413463593,-0.14285150170326233,0.790076494216919
f18fa8bf-33ac-4d86-a008-814929057197,06de69ea-30e8-4081-8e83-788a0374f8b7,1760443609074393505,7.795334,-0.650406,-3.065109,-0.062012,-0.391113,0.979004,2.4113003100589254,-22.07983610488358,107.60543937038828,0.5827615261077881,-0.1297300159931183,-0.14230211079120636,0.7894993424415588
f18fa8bf-33ac-4d86-a008-814929057197,06de69ea-30e8-4081-8e83-788a0374f8b7,1760443609085051505,8.712769,-1.25885,-3.614426,-0.062012,-0.383301,0.963867,2.401064849550399,-22.00820595452556,107.4584623355867,0.5838212966918945,-0.12948109209537506,-0.14169169962406158,0.7888667583465576
f18fa8bf-33ac-4d86-a008-814929057197,06de69ea-30e8-4081-8e83-788a0374f8b7,1760443609095701505,9.016037,-1.688004,-3.858566,-0.056641,-0.37793,0.956055,2.3629494771619055,-21.852926211872933,107.11316742749138,0.5862796902656555,-0.12885983288288116,-0.1404227614402771,0.7873707413673401
f18fa8bf-33ac-4d86-a008-814929057197,06de69ea-30e8-4081-8e83-788a0374f8b7,1760443609106352505,9.262085,-1.808167,-3.858566,-0.053223,-0.372559,0.941894,2.3381461606121245,-21.771726962306932,106.97806869366798,0.587245523929596,-0.12844331562519073,-0.1398370862007141,0.7868230938911438
f18fa8bf-33ac-4d86-a008-814929057197,06de69ea-30e8-4081-8e83-788a0374f8b7,1760443609117003505,9.016037,-1.504898,-4.163742,-0.04834,-0.376465,0.938965,2.3103829655077406,-21.69366580204177,106.81660491717636,0.5883854627609253,-0.12805315852165222,-0.139259934425354,0.7861371040344238
f18fa8bf-33ac-4d86-a008-814929057197,06de69ea-30e8-4081-8e83-788a0374f8b7,1760443609127682505,7.307053,-1.993179,-4.411697,-0.039551,-0.35498,0.935547,2.2805632694413998,-21.61800823298416,106.63582249800089,0.5896524786949158,-0.12768302857875824,-0.13868974149227142,0.7853484153747559
f18fa8bf-33ac-4d86-a008-814929057197,06de69ea-30e8-4081-8e83-788a0374f8b7,1760443609138361505,6.393433,-2.235413,-4.716873,-0.050293,-0.365723,0.929199,2.25149684281217,-21.54935063290457,106.43591048626119,0.5910444259643555,-0.1273752599954605,-0.13814407587051392,0.7844477295875549
f18fa8bf-33ac-4d86-a008-814929057197,06de69ea-30e8-4081-8e83-788a0374f8b7,1760443609149040505,5.53894,-2.540588,-4.652023,-0.048828,-0.349121,0.918945,2.221515110392374,-21.49469607845137,106.25407464321275,0.5922985076904297,-0.1271095871925354,-0.13772094249725342,0.7836188673973083
f18fa8bf-33ac-4d86-a008-814929057197,06de69ea-30e8-4081-8e83-788a0374f8b7,1760443609157130505,4.318237,-2.479553,-4.594803,-0.04834,-0.343262,0.933105,2.157905699533697,-21.404992994057483,105.88375273574097,0.5948277115821838,-0.1266588270664215,-0.13702428340911865,0.7818962931632996
f18fa8bf-33ac-4d86-a008-814929057197,06de69ea-30e8-4081-8e83-788a0374f8b7,1760443609165221505,3.158569,-2.357483,-4.957199,-0.056641,-0.360352,0.922363,2.1297546963773843,-21.378526984073357,105.7235843557195,0.5959088802337646,-0.1265219748020172,-0.13681213557720184,0.7811320424079895
f18fa8bf-33ac-4d86-a008-814929057197,06de69ea-30e8-4081-8e83-788a0374f8b7,1760443609173312505,2.54631,-2.11525,-4.899979,-0.052246,-0.366699,0.921387,2.0996580741628925,-21.3597090486551,105.60235927371399,0.5967150330543518,-0.1263645440340042,-0.13670608401298523,0.7805604338645935
f18fa8bf-33ac-4d86-a008-814929057197,06de69ea-30e8-4081-8e83-788a0374f8b7,1760443609181403505,1.51062,-1.991272,-4.899979,-0.053711,-0.347656,0.943848,2.07195175565518,-21.3400158954548,105.42999731147144,0.597872257232666,-0.12627968192100525,-0.1365257203578949,0.7797197699546814
f18fa8bf-33ac-4d86-a008-814929057197,06de69ea-30e8-4081-8e83-788a0374f8b7,1760443609191953505,0.471115,-1.504898,-4.716873,-0.04834,-0.348145,0.934082,2.0470747422968656,-21.333309817964537,105.27797957236994,0.598882257938385,-0.12625685334205627,-0.13644227385520935,0.7789625525474548
f18fa8bf-33ac-4d86-a008-814929057197,06de69ea-30e8-4081-8e83-788a0374f8b7,1760443609202503505,0.289917,-1.25885,-4.594803,-0.039551,-0.369141,0.948242,2.023004346074257,-21.33240304429406,105.16436411555412,0.5996264219284058,-0.1262238621711731,-0.13643679022789001,0.7783961892127991
f18fa8bf-33ac-4d86-a008-814929057197,06de69ea-30e8-4081-8e83-788a0374f8b7,1760443609213053505,-0.076294,-0.892639,-4.468918,-0.039551,-0.362793,0.944824,2.0055398546743084,-21.33276394191465,104.97519561844476,0.6008895039558411,-0.12633231282234192,-0.1363222748041153,0.7774240374565125
f18fa8bf-33ac-4d86-a008-814929057197,06de69ea-30e8-4081-8e83-788a0374f8b7,1760443609221055505,-0.38147,-1.075745,-3.858566,-0.036621,-0.352539,0.94043,1.9820705099459976,-21.33319030489914,104.78067533346233,0.6021800637245178,-0.1264067441225052,-0.1362338662147522,0.77642822265625
f18fa8bf-33ac-4d86-a008-814929057197,06de69ea-30e8-4081-8e83-788a0374f8b7,1760443609229058505,-0.808716,-1.564026,-3.370285,-0.040527,-0.372559,0.929687,1.9604216526643603,-21.336172501836582,104.5942126593298,0.6034143567085266,-0.1264973282814026,-0.13616228103637695,0.7754671573638916
f18fa8bf-33ac-4d86-a008-814929057197,06de69ea-30e8-4081-8e83-788a0374f8b7,1760443609237061505,-0.930786,-1.686096,-3.065109,-0.035156,-0.374023,0.93457,1.941778351480112,-21.34416255020983,104.43446058101803,0.6044657230377197,-0.12660279870033264,-0.1361384242773056,0.7746348977088928
f18fa8bf-33ac-4d86-a008-814929057197,06de69ea-30e8-4081-8e83-788a0374f8b7,1760443609245064505,-1.724243,-1.808167,-2.946854,-0.045898,-0.374023,0.935547,1.9197362194157546,-21.358294250847813,104.30359424095221,0.605311393737793,-0.12668335437774658,-0.13620610535144806,0.7739492058753967
f18fa8bf-33ac-4d86-a008-814929057197,06de69ea-30e8-4081-8e83-788a0374f8b7,1760443609255750505,-2.578735,-1.991272,-1.722336,-0.043945,-0.386719,0.936523,1.8974394849759337,-21.37816681723882,104.14718783710661,0.6063231825828552,-0.12682302296161652,-0.13628578186035156,0.7731198668479919
f18fa8bf-33ac-4d86-a008-814929057197,06de69ea-30e8-4081-8e83-788a0374f8b7,1760443609266436505,-3.313065,-1.993179,-1.661301,-0.036133,-0.369141,0.935547,1.8758367975116237,-21.409015120627153,104.0408041535977,0.6069876551628113,-0.1269659698009491,-0.13649140298366547,0.7725384831428528
f18fa8bf-33ac-4d86-a008-814929057197,06de69ea-30e8-4081-8e83-788a0374f8b7,1760443609277122505,-3.49617,-2.355576,-1.234055,-0.032715,-0.375,0.950684,1.855187304427527,-21.441216183597046,104.00478035660984,0.6071772575378418,-0.12703898549079895,-0.13677898049354553,0.7723265886306763
f18fa8bf-33ac-4d86-a008-814929057197,06de69ea-30e8-4081-8e83-788a0374f8b7,1760443609287776505,-3.679276,-2.603531,-0.810623,-0.039551,-0.362793,0.948242,1.8105682725216077,-21.50349733585032,103.73309071028908,0.6088976263999939,-0.12739118933677673,-0.13713547587394714,0.7708495259284973
f18fa8bf-33ac-4d86-a008-814929057197,06de69ea-30e8-4081-8e83-788a0374f8b7,1760443609298431505,-3.067017,-2.235413,-0.379562,-0.032715,-0.373535,0.950195,1.7881887581838438,-21.532062994330083,103.57812022057475,0.6098870038986206,-0.1275770366191864,-0.13727504014968872,0.7700113654136658
f18fa8bf-33ac-4d86-a008-814929057197,06de69ea-30e8-4081-8e83-788a0374f8b7,1760443609309086505,-2.822876,-2.540588,-0.013351,-0.021484,-0.375488,0.969238,1.7636736432369597,-21.553892742582086,103.42067259518548,0.6108952760696411,-0.12771649658679962,-0.13737753033638,0.7691702246665955
f18fa8bf-33ac-4d86-a008-814929057197,06de69ea-30e8-4081-8e83-788a0374f8b7,1760443609319736505,-2.212524,-2.601624,0.230789,-0.019043,-0.379883,0.948242,1.7335368908099826,-21.573011954675945,103.25677878819624,0.6119412183761597,-0.12781214714050293,-0.13748444616794586,0.7683033347129822
f18fa8bf-33ac-4d86-a008-814929057197,06de69ea-30e8-4081-8e83-788a0374f8b7,1760443609330386505,-2.578735,-2.601624,0.108719,-0.017578,-0.384277,0.94043,1.7061011656860128,-21.595074088668884,103.10662040681432,0.6128943562507629,-0.1279255896806717,-0.13761202991008759,0.7675014734268188
f18fa8bf-33ac-4d86-a008-814929057197,06de69ea-30e8-4081-8e83-788a0374f8b7,1760443609341036505,-3.067017,-2.479553,-0.379562,-0.02002,-0.375,0.937988,1.6789876909718173,-21.621452060647226,102.98933235583684,0.613622784614563,-0.12802518904209137,-0.13780353963375092,0.7668681740760803
f18fa8bf-33ac-4d86-a008-814929057197,06de69ea-30e8-4081-8e83-788a0374f8b7,1760443609349034505,-3.250122,-2.113342,-0.440598,-0.016602,-0.367676,0.958008,1.6318231037921287,-21.673636616389224,102.77963753079933,0.6149200201034546,-0.12824010848999023,-0.13817240297794342,0.7657259106636047
f18fa8bf-33ac-4d86-a008-814929057197,06de69ea-30e8-4081-8e83-788a0374f8b7,1760443609357034505,-3.616333,-2.113342,-0.257492,-0.02832,-0.37793,0.955566,1.6115233719768742,-21.704519153977284,102.68061795555106,0.6155282258987427,-0.1283886730670929,-0.13837769627571106,0.7651751041412354
f18fa8bf-33ac-4d86-a008-814929057197,06de69ea-30e8-4081-8e83-788a0374f8b7,1760443609365034505,-4.226685,-1.502991,-0.562668,-0.021484,-0.385254,0.943359,1.5920656006385359,-21.742949441364615,102.63929329672885,0.6157447099685669,-0.12851381301879883,-0.13869358599185944,0.7649226784706116
f18fa8bf-33ac-4d86-a008-814929057197,06de69ea-30e8-4081-8e83-788a0374f8b7,1760443609381037505,-4.655838,-1.688004,-0.322342,-0.033203,-0.369141,0.947266,1.5759914894389715,-21.7836824343533,102.56353861686465,0.6161925792694092,-0.12871582806110382,-0.13896794617176056,0.7644781470298767
f18fa8bf-33ac-4d86-a008-814929057197,06de69ea-30e8-4081-8e83-788a0374f8b7,1760443609389038505,-4.592896,-2.235413,-0.257492,-0.026367,-0.380371,0.937988,1.561855795563291,-21.819745320059493,102.42936264507325,0.6170361638069153,-0.12897716462612152,-0.13913463056087494,0.7637230157852173
f18fa8bf-33ac-4d86-a008-814929057197,06de69ea-30e8-4081-8e83-788a0374f8b7,1760443609397039505,-5.081177,-1.625061,-0.196457,-0.021484,-0.390137,0.946777,1.5447885249405198,-21.86040815089906,102.2706687769696,0.6180340051651001,-0.12927401065826416,-0.1393197774887085,0.7628316879272461
f18fa8bf-33ac-4d86-a008-814929057197,06de69ea-30e8-4081-8e83-788a0374f8b7,1760443609405040505,-5.447388,-1.25885,-0.074387,-0.02832,-0.382324,0.953613,1.5291015247344275,-21.907392599796005,102.13446988692655,0.6188764572143555,-0.129587322473526,-0.13956452906131744,0.7620503902435303
f18fa8bf-33ac-4d86-a008-814929057197,06de69ea-30e8-4081-8e83-788a0374f8b7,1760443609415699505,-5.32341,-1.199722,-0.074387,-0.030762,-0.394531,0.950684,1.5172440827277367,-21.95468630771341,102.03381023165218,0.6194859743118286,-0.12988513708114624,-0.1398303359746933,0.7614554762840271
f18fa8bf-33ac-4d86-a008-814929057197,06de69ea-30e8-4081-8e83-788a0374f8b7,1760443609426358505,-5.506516,-1.199722,-0.074387,-0.032715,-0.381348,0.942871,1.5067231271543704,-22.005168496102886,101.90261193780427,0.620296061038971,-0.1302468627691269,-0.14007501304149628,0.760688841342926
f18fa8bf-33ac-4d86-a008-814929057197,06de69ea-30e8-4081-8e83-788a0374f8b7,1760443609437017505,-5.691528,-0.648499,-0.139236,-0.026855,-0.388672,0.945801,1.4986362455222781,-22.053790854111192,101.79986850810033,0.6209210753440857,-0.1305805891752243,-0.1403258591890335,0.7600752115249634
f18fa8bf-33ac-4d86-a008-814929057197,06de69ea-30e8-4081-8e83-788a0374f8b7,1760443609445027505,-6.362915,-0.160217,-0.074387,-0.021484,-0.403809,0.943848,1.4919440469242267,-22.168291444848357,101.64353859071538,0.6218380928039551,-0.13134509325027466,-0.14094561338424683,0.7590785026550293
f18fa8bf-33ac-4d86-a008-814929057197,06de69ea-30e8-4081-8e83-788a0374f8b7,1760443609453036505,-6.240845,-0.404358,-0.139236,-0.032227,-0.392578,0.95166,1.4904748632850164,-22.22926678772303,101.48287259959432,0.622840404510498,-0.13186223804950714,-0.14117442071437836,0.7581239342689514
f18fa8bf-33ac-4d86-a008-814929057197,06de69ea-30e8-4081-8e83-788a0374f8b7,1760443609461045505,-6.30188,-0.892639,-0.257492,-0.040039,-0.398926,0.957031,1.4876021780111255,-22.289837343076933,101.41374595469078,0.6232346892356873,-0.13225577771663666,-0.1415126621723175,0.757668137550354
f18fa8bf-33ac-4d86-a008-814929057197,06de69ea-30e8-4081-8e83-788a0374f8b7,1760443609469054505,-6.240845,-0.892639,0.108719,-0.037598,-0.39502,0.942383,1.4876319445716184,-22.346841559877834,101.33722643650921,0.6236844062805176,-0.13265876471996307,-0.14180241525173187,0.7571733593940735
f18fa8bf-33ac-4d86-a008-814929057197,06de69ea-30e8-4081-8e83-788a0374f8b7,1760443609479722505,-6.17981,-0.831604,0.349045,-0.041992,-0.415527,0.960449,1.4903337775598506,-22.406098061531065,101.22742458072014,0.6243544220924377,-0.13313327729701996,-0.14205338060855865,0.7564905285835266
f18fa8bf-33ac-4d86-a008-814929057197,06de69ea-30e8-4081-8e83-788a0374f8b7,1760443609490390505,-5.752563,-1.38092,0.349045,-0.039062,-0.399902,0.964844,1.4833252874194391,-22.457621400217523,101.14568618885664,0.6248340606689453,-0.13346754014492035,-0.14233796298503876,0.7559819221496582
f18fa8bf-33ac-4d86-a008-814929057197,06de69ea-30e8-4081-8e83-788a0374f8b7,1760443609501058505,-5.325317,-1.930237,0.413895,-0.031738,-0.396484,0.957519,1.4734133210898344,-22.503539773272816,101.06728781256916,0.6252930760383606,-0.13374856114387512,-0.1426047384738922,0.7555022835731506
f18fa8bf-33ac-4d86-a008-814929057197,06de69ea-30e8-4081-8e83-788a0374f8b7,1760443609509067505,-4.714966,-1.686096,0.71907,-0.037598,-0.396973,0.948242,1.466383686073034,-22.541591163388976,100.98831578320336,0.6257668137550354,-0.13400700688362122,-0.14280270040035248,0.7550266981124878
f18fa8bf-33ac-4d86-a008-814929057197,06de69ea-30e8-4081-8e83-788a0374f8b7,1760443609517076505,-3.921509,-1.502991,0.902176,-0.023926,-0.393555,0.957031,1.4579671806114194,-22.57154772818615,100.89337015550115,0.6263516545295715,-0.13423259556293488,-0.14293569326400757,0.7544763684272766
f18fa8bf-33ac-4d86-a008-814929057197,06de69ea-30e8-4081-8e83-788a0374f8b7,1760443609525085505,-2.944946,-1.808167,0.654221,-0.02002,-0.402832,0.963867,1.4458127826424547,-22.595841949855192,100.77320200894671,0.6271029114723206,-0.13443461060523987,-0.1430218517780304,0.7537996768951416
f18fa8bf-33ac-4d86-a008-814929057197,06de69ea-30e8-4081-8e83-788a0374f8b7,1760443609533094505,-2.27356,-2.052307,0.780106,-0.02832,-0.402344,0.947266,1.4348553949659557,-22.61712792579992,100.73596922504392,0.6273126602172852,-0.13452483713626862,-0.14317871630191803,0.7535792589187622
f18fa8bf-33ac-4d86-a008-814929057197,06de69ea-30e8-4081-8e83-788a0374f8b7,1760443609543739505,-2.029419,-2.235413,1.207352,-0.033203,-0.38623,0.940918,1.4249082039926062,-22.630386709311345,100.6783738034117,0.6276655197143555,-0.1346035897731781,-0.14325308799743652,0.753257155418396
f18fa8bf-33ac-4d86-a008-814929057197,06de69ea-30e8-4081-8e83-788a0374f8b7,1760443609554384505,-1.665115,-2.298355,1.325607,-0.023438,-0.394531,0.953613,1.410700341375927,-22.64381291852784,100.57184297110977,0.6283341646194458,-0.13471657037734985,-0.1432943493127823,0.7526714205741882
f18fa8bf-33ac-4d86-a008-814929057197,06de69ea-30e8-4081-8e83-788a0374f8b7,1760443609565029505,-1.176834,-2.847672,1.451492,-0.041504,-0.387207,0.958496,1.3958260358436305,-22.64798512250863,100.51388931171174,0.6286919116973877,-0.13471412658691406,-0.14333531260490417,0.752365231513977
f18fa8bf-33ac-4d86-a008-814929057197,06de69ea-30e8-4081-8e83-788a0374f8b7,1760443609575677505,-0.442505,-2.906799,1.813889,-0.030273,-0.390137,0.943359,1.3794424018234057,-22.651747923202297,100.4384915184995,0.6291624903678894,-0.13472142815589905,-0.1433613896369934,0.7519655227661133
f18fa8bf-33ac-4d86-a008-814929057197,06de69ea-30e8-4081-8e83-788a0374f8b7,1760443609586325505,-0.259399,-2.967834,1.996994,-0.033691,-0.381836,0.95166,1.3641039026189552,-22.653801300036875,100.32709757165793,0.6298719048500061,-0.13477137684822083,-0.14332818984985352,0.7513687610626221
f18fa8bf-33ac-4d86-a008-814929057197,06de69ea-30e8-4081-8e83-788a0374f8b7,1760443609596973505,0.167847,-3.211975,2.183914,-0.020996,-0.379883,0.947754,1.3472475766812546,-22.648741476491836,100.2073817305948,0.6306406259536743,-0.13478291034698486,-0.14324679970741272,0.750737190246582
f18fa8bf-33ac-4d86-a008-814929057197,06de69ea-30e8-4081-8e83-788a0374f8b7,1760443609605002505,-0.076294,-2.723694,2.30217,-0.017578,-0.398438,0.93457,1.3146060114456313,-22.642434500938354,100.01310787105722,0.6318781971931458,-0.13477744162082672,-0.14315666258335114,0.7497140169143677
f18fa8bf-33ac-4d86-a008-814929057197,06de69ea-30e8-4081-8e83-788a0374f8b7,1760443609613031505,-0.383377,-2.481461,2.550125,-0.029297,-0.394043,0.93457,1.3031263484512625,-22.645698820442345,99.94158431567227,0.6323283314704895,-0.13480962812900543,-0.14315728843212128,0.7493284344673157
f18fa8bf-33ac-4d86-a008-814929057197,06de69ea-30e8-4081-8e83-788a0374f8b7,1760443609621060505,-0.871658,-2.11525,2.550125,-0.022461,-0.396973,0.93457,1.2974274304831162,-22.65685036506525,99.84950938276108,0.6329116225242615,-0.13494862616062164,-0.14315354824066162,0.7488115429878235
f18fa8bf-33ac-4d86-a008-814929057197,06de69ea-30e8-4081-8e83-788a0374f8b7,1760443609629089505,-0.991821,-1.747131,2.550125,-0.02832,-0.397461,0.928223,1.2949067119796007,-22.67162096374342,99.83570743656186,0.6329834461212158,-0.13503055274486542,-0.14324809610843658,0.7487179636955261
f18fa8bf-33ac-4d86-a008-814929057197,06de69ea-30e8-4081-8e83-788a0374f8b7,1760443609639743505,-1.358032,-1.075745,2.485275,-0.03125,-0.413086,0.931641,1.2979967169340392,-22.69318019484444,99.79973963150911,0.6332000494003296,-0.1352141797542572,-0.14332999289035797,0.7484859824180603
f18fa8bf-33ac-4d86-a008-814929057197,06de69ea-30e8-4081-8e83-788a0374f8b7,1760443609650397505,-2.456665,-0.465393,2.36702,-0.030762,-0.40625,0.927246,1.305053982401467,-22.723936246354953,99.71639033255705,0.6337213516235352,-0.1355336457490921,-0.1433941125869751,0.7479745149612427
f18fa8bf-33ac-4d86-a008-814929057197,06de69ea-30e8-4081-8e83-788a0374f8b7,1760443609661051505,-3.129959,0.143051,2.244949,-0.024902,-0.418457,0.926758,1.3144179437750354,-22.76171646073371,99.62024778953281,0.6343212723731995,-0.13592298328876495,-0.14347589015960693,0.7473794221878052
f18fa8bf-33ac-4d86-a008-814929057197,06de69ea-30e8-4081-8e83-788a0374f8b7,1760443609671703505,-3.616333,1.060486,1.996994,-0.015137,-0.402344,0.929687,1.3257820797682103,-22.80364712855528,99.50559980159265,0.6350393891334534,-0.13637161254882812,-0.14355115592479706,0.7466731071472168
f18fa8bf-33ac-4d86-a008-814929057197,06de69ea-30e8-4081-8e83-788a0374f8b7,1760443609682353505,-3.49617,1.119614,1.573563,-0.020996,-0.416992,0.932617,1.341706859420646,-22.84211117251807,99.41994443479756,0.6355772614479065,-0.13679473102092743,-0.1436123102903366,0.746126115322113
f18fa8bf-33ac-4d86-a008-814929057197,06de69ea-30e8-4081-8e83-788a0374f8b7,1760443609693003505,-3.984451,0.631332,1.207352,-0.017578,-0.421387,0.956543,1.355976115555443,-22.881501350824497,99.32898486848319,0.6361461281776428,-0.13721898198127747,-0.14368179440498352,0.7455497980117798
f18fa8bf-33ac-4d86-a008-814929057197,06de69ea-30e8-4081-8e83-788a0374f8b7,1760443609703673505,-3.555298,0.75531,1.325607,-0.030762,-0.432129,0.955078,1.380550581650335,-22.955443121504313,99.15227379621467,0.6372485160827637,-0.1380089372396469,-0.14381574094295502,0.7444358468055725
f18fa8bf-33ac-4d86-a008-814929057197,06de69ea-30e8-4081-8e83-788a0374f8b7,1760443609714343505,-2.883911,0.63324,1.085281,-0.015137,-0.422852,0.959961,1.3850358305588992,-22.984198239477205,99.0767366028026,0.6377145648002625,-0.13829194009304047,-0.1438872516155243,0.7439702749252319
f18fa8bf-33ac-4d86-a008-814929057197,06de69ea-30e8-4081-8e83-788a0374f8b7,1760443609725013505,-2.153397,0.448227,1.085281,-0.020996,-0.410645,0.961426,1.3946151638103441,-23.00737996447263,98.9941672828537,0.6382381319999695,-0.1385861039161682,-0.14388525485992432,0.7434667944908142
f18fa8bf-33ac-4d86-a008-814929057197,06de69ea-30e8-4081-8e83-788a0374f8b7,1760443609733003505,-0.993729,0.631332,0.597,-0.025879,-0.429688,0.955078,1.4022630028565615,-23.025610069713743,98.92816321043543,0.6386566758155823,-0.13881956040859222,-0.14388149976730347,0.7430644631385803
f18fa8bf-33ac-4d86-a008-814929057197,06de69ea-30e8-4081-8e83-788a0374f8b7,1760443609740991505,-0.62561,1.365662,0.902176,-0.020508,-0.422852,0.962402,1.4036318245352009,-23.029900967845492,98.8796309533131,0.6389685273170471,-0.13891315460205078,-0.14384299516677856,0.7427862286567688
f18fa8bf-33ac-4d86-a008-814929057197,06de69ea-30e8-4081-8e83-788a0374f8b7,1760443609748979505,-0.076294,0.999451,0.597,-0.033203,-0.418457,0.944336,1.410305653014871,-23.035246230650007,98.76714115497555,0.6397001147270203,-0.13912717998027802,-0.14370407164096832,0.7421430945396423
f18fa8bf-33ac-4d86-a008-814929057197,06de69ea-30e8-4081-8e83-788a0374f8b7,1760443609756967505,0.165939,0.936508,1.085281,-0.026855,-0.431152,0.95459,1.4148913868871456,-23.04039134630552,98.6427760110339,0.6405054926872253,-0.1393413245677948,-0.14356079697608948,0.7414356470108032
f18fa8bf-33ac-4d86-a008-814929057197,06de69ea-30e8-4081-8e83-788a0374f8b7,1760443609767649505,0.473022,1.243591,1.390457,-0.024414,-0.419434,0.946777,1.4321643135877227,-23.04630181878573,98.5271852136136,0.6412684321403503,-0.13963060081005096,-0.1433618813753128,0.7407599687576294
f18fa8bf-33ac-4d86-a008-814929057197,06de69ea-30e8-4081-8e83-788a0374f8b7,1760443609778331505,0.350952,1.121521,0.963211,-0.02832,-0.410645,0.95166,1.4479311243198654,-23.047675849954942,98.43408249172602,0.6418883204460144,-0.13985653221607208,-0.14316898584365845,0.7402175664901733
f18fa8bf-33ac-4d86-a008-814929057197,06de69ea-30e8-4081-8e83-788a0374f8b7,1760443609789013505,1.022339,0.816345,1.325607,-0.028809,-0.408203,0.953613,1.4624737318816108,-23.04625203875055,98.35235726646256,0.6424357295036316,-0.14004455506801605,-0.14297844469547272,0.7397437691688538
f18fa8bf-33ac-4d86-a008-814929057197,06de69ea-30e8-4081-8e83-788a0374f8b7,1760443609799677505,1.266479,0.389099,1.142502,-0.029785,-0.404297,0.942871,1.4826516855449423,-23.025144918929183,98.24010782993857,0.6432074904441833,-0.14019693434238434,-0.1425911784172058,0.739118754863739
f18fa8bf-33ac-4d86-a008-814929057197,06de69ea-30e8-4081-8e83-788a0374f8b7,1760443609810341505,1.51062,0.572205,1.085281,-0.022949,-0.40918,0.94043,1.4942148119720084,-23.016914947991467,98.23123663418339,0.6432877779006958,-0.14023663103580475,-0.1424620896577835,0.7390662431716919
f18fa8bf-33ac-4d86-a008-814929057197,06de69ea-30e8-4081-8e83-788a0374f8b7,1760443609821005505,1.815796,0.205994,0.963211,-0.02832,-0.406738,0.955078,1.503975200027458,-23.002376479530014,98.1278078866714,0.6439820528030396,-0.14034685492515564,-0.1421864777803421,0.7384935617446899
f18fa8bf-33ac-4d86-a008-814929057197,06de69ea-30e8-4081-8e83-788a0374f8b7,1760443609829050505,1.815796,0.572205,0.165939,-0.020508,-0.394531,0.936523,1.5054772417076008,-22.990118529520306,98.03143146034297,0.6446177363395691,-0.140407532453537,-0.1419806331396103,0.7379668354988098
f18fa8bf-33ac-4d86-a008-814929057197,06de69ea-30e8-4081-8e83-788a0374f8b7,1760443609837095505,1.752853,0.448227,-0.257492,-0.030762,-0.398438,0.936523,1.5084853070469484,-22.97304901192764,97.96808012266405,0.6450473666191101,-0.14040987193584442,-0.14177566766738892,0.737630307674408
f18fa8bf-33ac-4d86-a008-814929057197,06de69ea-30e8-4081-8e83-788a0374f8b7,1760443609845140505,1.447678,0.631332,-0.684738,-0.039062,-0.409668,0.944824,1.515006961238291,-22.96312775195053,97.84688052383535,0.6458457112312317,-0.14054611325263977,-0.1415262222290039,0.7369533777236938
f18fa8bf-33ac-4d86-a008-814929057197,06de69ea-30e8-4081-8e83-788a0374f8b7,1760443609853185505,1.205444,0.816345,-0.867844,-0.016113,-0.407715,0.950684,1.5243269909836548,-22.95397439887075,97.72159073027947,0.646672248840332,-0.1407093107700348,-0.1412607878446579,0.7362480163574219
f18fa8bf-33ac-4d86-a008-814929057197,06de69ea-30e8-4081-8e83-788a0374f8b7,1760443609863807505,1.083374,0.87738,-0.745773,-0.033691,-0.388672,0.94873,1.5266438846282617,-22.942423090712452,97.59545344773115,0.6474973559379578,-0.14081472158432007,-0.14101822674274445,0.7355488538742065
f18fa8bf-33ac-4d86-a008-814929057197,06de69ea-30e8-4081-8e83-788a0374f8b7,1760443609874429505,0.717163,1.182556,-1.173019,-0.040527,-0.40625,0.943848,1.5358937759239417,-22.932216520865776,97.47838934844609,0.6482706069946289,-0.14096064865589142,-0.14075620472431183,0.7348896861076355
f18fa8bf-33ac-4d86-a008-814929057197,06de69ea-30e8-4081-8e83-788a0374f8b7,1760443609885051505,0.593185,1.245499,-1.115799,-0.04248,-0.40625,0.938477,1.5451632376900049,-22.926479037127237,97.36955242286189,0.648985743522644,-0.14112137258052826,-0.14053282141685486,0.7342701554298401
f18fa8bf-33ac-4d86-a008-814929057197,06de69ea-30e8-4081-8e83-788a0374f8b7,1760443609895689505,0.28801,1.119614,-1.356125,-0.044434,-0.404297,0.946289,1.56796165475839,-22.91880088085647,97.13635845937777,0.6505146622657776,-0.14150956273078918,-0.14006657898426056,0.7329304218292236
f18fa8bf-33ac-4d86-a008-814929057197,06de69ea-30e8-4081-8e83-788a0374f8b7,1760443609906329505,0.28801,1.119614,-1.53923,-0.040039,-0.400879,0.942871,1.5798038267728707,-22.919236217594058,97.09083640147915,0.6508197784423828,-0.14164337515830994,-0.1399458944797516,0.7326566576957703
f18fa8bf-33ac-4d86-a008-814929057197,06de69ea-30e8-4081-8e83-788a0374f8b7,1760443609916969505,0.104904,1.245499,-1.48201,-0.016113,-0.389648,0.947266,1.5854015157569914,-22.916988700880175,96.97809248275415,0.6515495181083679,-0.1418040543794632,-0.13976021111011505,0.732012152671814
f18fa8bf-33ac-4d86-a008-814929057197,06de69ea-30e8-4081-8e83-788a0374f8b7,1760443609927649505,0.473022,1.060486,-1.41716,-0.035645,-0.396973,0.947266,1.588816941055085,-22.913912383194802,96.87032052454474,0.6522451043128967,-0.14193983376026154,-0.1395876109600067,0.7313990592956543
f18fa8bf-33ac-4d86-a008-814929057197,06de69ea-30e8-4081-8e83-788a0374f8b7,1760443609938331505,0.534058,1.548767,-1.41716,-0.027344,-0.408203,0.949219,1.598692078824906,-22.90833802472776,96.7836567384693,0.6528159976005554,-0.1420767903327942,-0.13938823342323303,0.7309010028839111
f18fa8bf-33ac-4d86-a008-814929057197,06de69ea-30e8-4081-8e83-788a0374f8b7,1760443609949013505,0.778198,1.548767,-1.050949,-0.043945,-0.393555,0.937012,1.607002167338336,-22.902227954915485,96.6887084675532,0.6534379720687866,-0.14221058785915375,-0.13918393850326538,0.7303578853607178
f18fa8bf-33ac-4d86-a008-814929057197,06de69ea-30e8-4081-8e83-788a0374f8b7,1760443609959692505,0.959396,0.814438,-0.928879,-0.043457,-0.411621,0.95166,1.6340195187323856,-22.88574805465623,96.46937789062002,0.654884934425354,-0.14255504310131073,-0.13865169882774353,0.729094922542572
f18fa8bf-33ac-4d86-a008-814929057197,06de69ea-30e8-4081-8e83-788a0374f8b7,1760443609970371505,1.264572,0.757217,-0.684738,-0.035645,-0.391113,0.950195,1.6414446193443395,-22.87480551021586,96.36815029730933,0.6555493474006653,-0.14266248047351837,-0.13841331005096436,0.7285218834877014
f18fa8bf-33ac-4d86-a008-814929057197,06de69ea-30e8-4081-8e83-788a0374f8b7,1760443609981050505,1.569748,0.509262,-0.440598,-0.041504,-0.40332,0.944336,1.6529661144625478,-22.86203122295446,96.29925027586232,0.6560147404670715,-0.142746239900589,-0.1381799578666687,0.7281306982040405
f18fa8bf-33ac-4d86-a008-814929057197,06de69ea-30e8-4081-8e83-788a0374f8b7,1760443609989038505,1.447678,0.448227,-0.013351,-0.050293,-0.398438,0.948242,1.6656954551606318,-22.843251966959578,96.18681117072724,0.6567641496658325,-0.14285562932491302,-0.13784702122211456,0.7274965643882751
f18fa8bf-33ac-4d86-a008-814929057197,06de69ea-30e8-4081-8e83-788a0374f8b7,1760443609997027505,0.900269,0.75531,0.165939,-0.028809,-0.397461,0.947266,1.677690935562855,-22.834297671588985,96.1136095996731,0.6572526693344116,-0.14296875894069672,-0.13762982189655304,0.7270740866661072
f18fa8bf-33ac-4d86-a008-814929057197,06de69ea-30e8-4081-8e83-788a0374f8b7,1760443610005016505,0.961304,0.75531,-0.013351,-0.032715,-0.384277,0.945312,1.6782853611562079,-22.83234519646702,96.10458821862333,0.6573126912117004,-0.14297223091125488,-0.13760270178318024,0.7270243167877197
f18fa8bf-33ac-4d86-a008-814929057197,06de69ea-30e8-4081-8e83-788a0374f8b7,1760443610013005505,0.717163,0.87738,-0.322342,-0.039062,-0.398926,0.939453,1.6843594744725578,-22.830688818471884,96.0792556486202,0.6574824452400208,-0.14303173124790192,-0.13752567768096924,0.7268736958503723
f18fa8bf-33ac-4d86-a008-814929057197,06de69ea-30e8-4081-8e83-788a0374f8b7,1760443610023669505,0.28801,0.997543,-0.139236,-0.037109,-0.401855,0.940918,1.6908625998671099,-22.831125208061415,96.02404885850852,0.6578398942947388,-0.1431417018175125,-0.13742220401763916,0.7265480756759644
f18fa8bf-33ac-4d86-a008-814929057197,06de69ea-30e8-4081-8e83-788a0374f8b7,1760443610034333505,0.656128,0.816345,-0.379562,-0.054199,-0.40332,0.942871,1.6949292977240458,-22.83080984978834,95.9150108176411,0.6585361361503601,-0.14329634606838226,-0.1372605562210083,0.7259172201156616
f18fa8bf-33ac-4d86-a008-814929057197,06de69ea-30e8-4081-8e83-788a0374f8b7,1760443610044997505,0.778198,0.87738,-0.501633,-0.039062,-0.40918,0.957031,1.7047595781088807,-22.833075661003615,95.81060194904313,0.6592066287994385,-0.1434965282678604,-0.13708780705928802,0.7253014445304871
f18fa8bf-33ac-4d86-a008-814929057197,06de69ea-30e8-4081-8e83-788a0374f8b7,1760443610055646505,0.839233,1.060486,-0.745773,-0.036133,-0.416992,0.962891,1.7164940968015665,-22.830940941189805,95.57634340620145,0.6607042551040649,-0.14383837580680847,-0.1367129534482956,0.7239405512809753
f18fa8bf-33ac-4d86-a008-814929057197,06de69ea-30e8-4081-8e83-788a0374f8b7,1760443610066294505,1.205444,0.75531,-0.928879,-0.041504,-0.395996,0.975586,1.7248076962094827,-22.813159360697867,95.4736910951884,0.6613813638687134,-0.14391133189201355,-0.13642320036888123,0.723362147808075
f18fa8bf-33ac-4d86-a008-814929057197,06de69ea-30e8-4081-8e83-788a0374f8b7,1760443610076942505,2.304077,0.75531,-0.867844,-0.051758,-0.402344,0.960937,1.7340399144727248,-22.7914556979102,95.42813296755489,0.6617029905319214,-0.1438993215560913,-0.13617494702339172,0.7231171727180481
f18fa8bf-33ac-4d86-a008-814929057197,06de69ea-30e8-4081-8e83-788a0374f8b7,1760443610084962505,3.036499,0.816345,-0.562668,-0.047852,-0.400879,0.955078,1.742047909076552,-22.76344801293931,95.35510260075218,0.6622030138969421,-0.1438758224248886,-0.13585931062698364,0.7227233648300171
f18fa8bf-33ac-4d86-a008-814929057197,06de69ea-30e8-4081-8e83-788a0374f8b7,1760443610092983505,3.585815,0.511169,-0.810623,-0.049316,-0.413574,0.966309,1.7538788386043456,-22.736886078377445,95.23659095051144,0.6629923582077026,-0.14393815398216248,-0.13547368347644806,0.7220593690872192
f18fa8bf-33ac-4d86-a008-814929057197,06de69ea-30e8-4081-8e83-788a0374f8b7,1760443610101004505,4.074097,0.205994,-0.322342,-0.05127,-0.403809,0.966797,1.7649077909530269,-22.704568790207027,95.17389169184983,0.6634346842765808,-0.14389587938785553,-0.13512636721134186,0.7217265367507935
f18fa8bf-33ac-4d86-a008-814929057197,06de69ea-30e8-4081-8e83-788a0374f8b7,1760443610109025505,4.989624,0.328064,-0.257492,-0.044434,-0.401367,0.956055,1.7736030842177957,-22.665126459804846,95.09880027885653,0.6639595627784729,-0.1438121497631073,-0.1347319781780243,0.7213341593742371
f18fa8bf-33ac-4d86-a008-814929057197,06de69ea-30e8-4081-8e83-788a0374f8b7,1760443610119695505,5.231857,-0.040054,-0.139236,-0.023926,-0.402832,0.952637,1.7801444114599638,-22.619851486869596,94.99666068907497,0.6646578907966614,-0.14371250569820404,-0.13427940011024475,0.7207950949668884
f18fa8bf-33ac-4d86-a008-814929057197,06de69ea-30e8-4081-8e83-788a0374f8b7,1760443610130365505,5.170822,0.085831,-0.379562,-0.037598,-0.411133,0.937988,1.78182002648576,-22.577458210896197,94.86999521435675,0.665501058101654,-0.1436268389225006,-0.1338428109884262,0.720115065574646
f18fa8bf-33ac-4d86-a008-814929057197,06de69ea-30e8-4081-8e83-788a0374f8b7,1760443610141035505,4.867554,-0.099182,-0.257492,-0.024414,-0.384766,0.935547,1.7826054197381667,-22.53833801195647,94.7483644333972,0.6663073301315308,-0.14354781806468964,-0.13343870639801025,0.7194599509239197
f18fa8bf-33ac-4d86-a008-814929057197,06de69ea-30e8-4081-8e83-788a0374f8b7,1760443610151695505,4.377365,0.265121,-0.562668,-0.029297,-0.398438,0.926269,1.7790764085293858,-22.466813468588917,94.53918171651286,0.6676911115646362,-0.1433551013469696,-0.13274610042572021,0.7183427214622498
f18fa8bf-33ac-4d86-a008-814929057197,06de69ea-30e8-4081-8e83-788a0374f8b7,1760443610162356505,3.952026,-0.099182,-0.501633,-0.035156,-0.404297,0.930176,1.778391033581653,-22.440539946673102,94.45062055598842,0.6682730317115784,-0.14330114424228668,-0.13247373700141907,0.7178625464439392
f18fa8bf-33ac-4d86-a008-814929057197,06de69ea-30e8-4081-8e83-788a0374f8b7,1760443610173017505,3.341675,-0.282288,-0.867844,-0.034668,-0.387207,0.942383,1.7802705562192795,-22.414534334174252,94.4445280367784,0.668340802192688,-0.14316929876804352,-0.13229131698608398,0.7178593873977661
f18fa8bf-33ac-4d86-a008-814929057197,06de69ea-30e8-4081-8e83-788a0374f8b7,1760443610181019505,1.878738,-0.22316,-1.173019,-0.031738,-0.390137,0.941406,1.778048594524474,-22.400505062464752,94.41601983837832,0.668531596660614,-0.14310698211193085,-0.13218028843402863,0.7177146077156067
f18fa8bf-33ac-4d86-a008-814929057197,06de69ea-30e8-4081-8e83-788a0374f8b7,1760443610189023505,1.327515,-0.160217,-1.050949,-0.041016,-0.38623,0.937988,1.77723810826444,-22.38284560478894,94.34087049307948,0.6690198183059692,-0.14308615028858185,-0.13197997212409973,0.717300534248352
f18fa8bf-33ac-4d86-a008-814929057197,06de69ea-30e8-4081-8e83-788a0374f8b7,1760443610197027505,0.656128,0.205994,-1.234055,-0.038574,-0.371582,0.933594,1.7750430781072422,-22.369361085688304,94.30572989346628,0.6692514419555664,-0.1430346518754959,-0.1318640410900116,0.7171159982681274
f18fa8bf-33ac-4d86-a008-814929057197,06de69ea-30e8-4081-8e83-788a0374f8b7,1760443610205031505,0.413895,-0.040054,-0.867844,-0.041992,-0.390625,0.943359,1.777137248673664,-22.363456562246665,94.2635269572142,0.6695241332054138,-0.143062025308609,-0.13176196813583374,0.7168747782707214
f18fa8bf-33ac-4d86-a008-814929057197,06de69ea-30e8-4081-8e83-788a0374f8b7,1760443610215685505,0.047684,-0.22316,-0.745773,-0.034668,-0.371582,0.934082,1.7842851363925105,-22.359581835441467,94.20260402271836,0.6699174642562866,-0.14315424859523773,-0.13161973655223846,0.7165149450302124
f18fa8bf-33ac-4d86-a008-814929057197,06de69ea-30e8-4081-8e83-788a0374f8b7,1760443610226339505,-0.198364,-0.770569,-0.745773,-0.040527,-0.37207,0.939453,1.7857552763473774,-22.355194339771238,94.13557159568889,0.6703428030014038,-0.14321491122245789,-0.13149979710578918,0.7161269187927246
f18fa8bf-33ac-4d86-a008-814929057197,06de69ea-30e8-4081-8e83-788a0374f8b7,1760443610236993505,-0.505447,-0.528336,-0.684738,-0.02832,-0.383301,0.94043,1.7896966508879204,-22.34941334672228,94.06515501282257,0.670793354511261,-0.14328669011592865,-0.13135237991809845,0.715717613697052
f18fa8bf-33ac-4d86-a008-814929057197,06de69ea-30e8-4081-8e83-788a0374f8b7,1760443610247665505,-1.480103,-0.587463,-0.627518,-0.032227,-0.379395,0.943848,1.7805243676976568,-22.35843882554205,93.95843283545277,0.6714395880699158,-0.1434042602777481,-0.1313292682170868,0.7150920629501343
f18fa8bf-33ac-4d86-a008-814929057197,06de69ea-30e8-4081-8e83-788a0374f8b7,1760443610258337505,-1.543045,-0.890732,-0.562668,-0.046875,-0.381836,0.933105,1.7762982056308332,-22.372006407097434,93.87944385733567,0.6719131469726562,-0.1435474306344986,-0.13134026527404785,0.7146163582801819
f18fa8bf-33ac-4d86-a008-814929057197,06de69ea-30e8-4081-8e83-788a0374f8b7,1760443610269009505,-1.907349,-0.282288,-0.627518,-0.02832,-0.382324,0.943359,1.7698111538068373,-22.384463077555246,93.86762785328672,0.6719661951065063,-0.14359308779239655,-0.1314416229724884,0.7145386934280396
f18fa8bf-33ac-4d86-a008-814929057197,06de69ea-30e8-4081-8e83-788a0374f8b7,1760443610279726505,-2.578735,0.205994,-1.173019,-0.053711,-0.396973,0.953125,1.7657448556416413,-22.40495178671261,93.82352489717879,0.6722147464752197,-0.14373773336410522,-0.13153864443302155,0.7142578959465027
f18fa8bf-33ac-4d86-a008-814929057197,06de69ea-30e8-4081-8e83-788a0374f8b7,1760443610290443505,-2.458572,-0.040054,-0.989914,-0.040039,-0.379883,0.942383,1.7699483196559382,-22.428024593804434,93.72057127041327,0.6728364825248718,-0.14401663839817047,-0.1315292865037918,0.7136176824569702
f18fa8bf-33ac-4d86-a008-814929057197,06de69ea-30e8-4081-8e83-788a0374f8b7,1760443610301160505,-2.519608,-0.040054,-0.867844,-0.037109,-0.394531,0.955566,1.7707217032569285,-22.446826980053025,93.61793161490695,0.6734562516212463,-0.14424897730350494,-0.13151335716247559,0.7129888534545898
f18fa8bf-33ac-4d86-a008-814929057197,06de69ea-30e8-4081-8e83-788a0374f8b7,1760443610309117505,-2.519608,0.020981,-0.867844,-0.038086,-0.376465,0.943359,1.7682424755245332,-22.48673128784813,93.42629684029698,0.6746021509170532,-0.1446867138147354,-0.1315358579158783,0.7118117213249207
f18fa8bf-33ac-4d86-a008-814929057197,06de69ea-30e8-4081-8e83-788a0374f8b7,1760443610317073505,-2.27356,-0.099182,-0.867844,-0.037109,-0.396484,0.951172,1.771294139199699,-22.505856763326012,93.33070527926496,0.6751787066459656,-0.14492729306221008,-0.13151653110980988,0.7112194299697876
f18fa8bf-33ac-4d86-a008-814929057197,06de69ea-30e8-4081-8e83-788a0374f8b7,1760443610325029505,-2.698898,-0.22316,-0.322342,-0.045898,-0.396484,0.947266,1.7741850209303265,-22.532566338044827,93.22898387396488,0.6757844090461731,-0.1452184021472931,-0.13153737783432007,0.7105806469917297
f18fa8bf-33ac-4d86-a008-814929057197,06de69ea-30e8-4081-8e83-788a0374f8b7,1760443610332985505,-2.824783,-0.162125,-0.139236,-0.039062,-0.37793,0.944824,1.776921562354771,-22.556474385881447,93.17734760751414,0.6760819554328918,-0.14543475210666656,-0.13160483539104462,0.7102408409118652
f18fa8bf-33ac-4d86-a008-814929057197,06de69ea-30e8-4081-8e83-788a0374f8b7,1760443610343687505,-3.435135,-0.040054,-0.074387,-0.046875,-0.398926,0.930664,1.7828262221133384,-22.589471596076596,93.10897325255374,0.6764768362045288,-0.14574335515499115,-0.13168877363204956,0.7097858786582947
f18fa8bf-33ac-4d86-a008-814929057197,06de69ea-30e8-4081-8e83-788a0374f8b7,1760443610354389505,-3.801346,0.265121,0.108719,-0.030762,-0.386719,0.947266,1.7855364049059905,-22.62088084779634,93.00155172513143,0.6771110892295837,-0.14606790244579315,-0.13173159956932068,0.7091060876846313
f18fa8bf-33ac-4d86-a008-814929057197,06de69ea-30e8-4081-8e83-788a0374f8b7,1760443610365091505,-4.348755,0.083923,-0.139236,-0.040527,-0.384766,0.939453,1.7895555295033523,-22.65675044919192,92.93093564506941,0.6775137186050415,-0.146384596824646,-0.13184094429016113,0.7086357474327087
f18fa8bf-33ac-4d86-a008-814929057197,06de69ea-30e8-4081-8e83-788a0374f8b7,1760443610375734505,-4.714966,0.144958,0.47493,-0.035156,-0.393066,0.951172,1.7942378711911449,-22.691876870590754,92.91592022068257,0.6775738596916199,-0.1466371715068817,-0.13201256096363068,0.7084940075874329
f18fa8bf-33ac-4d86-a008-814929057197,06de69ea-30e8-4081-8e83-788a0374f8b7,1760443610386380505,-4.53186,-0.038147,0.654221,-0.049316,-0.39209,0.963379,1.8004379411770086,-22.7333653735619,92.87333436059912,0.6777991652488708,-0.1469683200120926,-0.13217933475971222,0.7081787586212158
f18fa8bf-33ac-4d86-a008-814929057197,06de69ea-30e8-4081-8e83-788a0374f8b7,1760443610397026505,-3.984451,-0.162125,0.597,-0.041992,-0.379395,0.936523,1.8092308427750865,-22.765925407870334,92.82078147675686,0.6780985593795776,-0.14727464318275452,-0.1322622299194336,0.7078129053115845
f18fa8bf-33ac-4d86-a008-814929057197,06de69ea-30e8-4081-8e83-788a0374f8b7,1760443610405028505,-4.104614,-0.953674,1.207352,-0.049805,-0.38623,0.944336,1.821102524605299,-22.833336470430897,92.68108946313724,0.678900957107544,-0.14790573716163635,-0.13243067264556885,0.7068800330162048
f18fa8bf-33ac-4d86-a008-814929057197,06de69ea-30e8-4081-8e83-788a0374f8b7,1760443610413029505,-3.984451,-1.199722,1.508713,-0.02832,-0.394531,0.950195,1.8169396902155541,-22.86552625404492,92.6065537310925,0.6793205142021179,-0.14815573394298553,-0.13255877792835236,0.706400454044342
f18fa8bf-33ac-4d86-a008-814929057197,06de69ea-30e8-4081-8e83-788a0374f8b7,1760443610421030505,-3.250122,-1.25885,1.268387,-0.027832,-0.402344,0.952637,1.811293426958311,-22.891491054246305,92.52992038475642,0.6797577142715454,-0.14836256206035614,-0.1326541006565094,0.7059184312820435
f18fa8bf-33ac-4d86-a008-814929057197,06de69ea-30e8-4081-8e83-788a0374f8b7,1760443610429031505,-3.313065,-1.321793,1.695633,-0.035156,-0.383301,0.956543,1.8082763081571283,-22.91401375501826,92.49240785555263,0.6799604892730713,-0.14852017164230347,-0.13276298344135284,0.7056694030761719
f18fa8bf-33ac-4d86-a008-814929057197,06de69ea-30e8-4081-8e83-788a0374f8b7,1760443610439700505,-3.189087,-1.625061,2.061844,-0.038574,-0.402344,0.953125,1.8052770477514377,-22.94223575222894,92.50764141106356,0.6798321008682251,-0.1486503630876541,-0.13297539949417114,0.7057257294654846
f18fa8bf-33ac-4d86-a008-814929057197,06de69ea-30e8-4081-8e83-788a0374f8b7,1760443610450369505,-3.067017,-1.747131,2.061844,-0.039551,-0.389648,0.946777,1.8026847911501045,-22.966460425444662,92.44901416719996,0.6801633238792419,-0.14884525537490845,-0.13306474685668945,0.705348551273346
f18fa8bf-33ac-4d86-a008-814929057197,06de69ea-30e8-4081-8e83-788a0374f8b7,1760443610461038505,-3.129959,-1.504898,1.939774,-0.04248,-0.412109,0.938965,1.8036145247082702,-22.994661743917103,92.40820045879434,0.6803843975067139,-0.14906470477581024,-0.13318079710006714,0.705066978931427
f18fa8bf-33ac-4d86-a008-814929057197,06de69ea-30e8-4081-8e83-788a0374f8b7,1760443610471677505,-3.007889,-0.955582,1.630783,-0.032715,-0.394043,0.942871,1.803351828282544,-23.02172569537682,92.40418109085752,0.6803788542747498,-0.14922738075256348,-0.13334466516971588,0.7050069570541382
f18fa8bf-33ac-4d86-a008-814929057197,06de69ea-30e8-4081-8e83-788a0374f8b7,1760443610482316505,-3.311157,-0.953674,1.451492,-0.038574,-0.404297,0.936523,1.8010006361989104,-23.048682947674305,92.34674881839082,0.6806994676589966,-0.1494387984275818,-0.13345061242580414,0.704632580280304
f18fa8bf-33ac-4d86-a008-814929057197,06de69ea-30e8-4081-8e83-788a0374f8b7,1760443610492955505,-3.250122,-0.892639,1.207352,-0.039551,-0.419434,0.941406,1.8008288026256807,-23.07741911099306,92.27972690449471,0.6810793280601501,-0.14968544244766235,-0.13354189693927765,0.7041956782341003
f18fa8bf-33ac-4d86-a008-814929057197,06de69ea-30e8-4081-8e83-788a0374f8b7,1760443610503642505,-3.129959,-1.016617,1.207352,-0.039062,-0.412109,0.942871,1.799658314431713,-23.140129449969983,92.1367229628332,0.6818862557411194,-0.1502154916524887,-0.13374923169612885,0.7032619714736938
f18fa8bf-33ac-4d86-a008-814929057197,06de69ea-30e8-4081-8e83-788a0374f8b7,1760443610514330505,-3.252029,-1.199722,0.902176,-0.024902,-0.413574,0.939453,1.7924832871197542,-23.171441295627773,92.07544764190567,0.6822187900543213,-0.1504281610250473,-0.1339048594236374,0.7028642892837524
f18fa8bf-33ac-4d86-a008-814929057197,06de69ea-30e8-4081-8e83-788a0374f8b7,1760443610525018505,-2.946854,-1.199722,0.71907,-0.037598,-0.40332,0.95459,1.7881195356540434,-23.194137859245814,92.01504045334221,0.6825586557388306,-0.15060628950595856,-0.133991539478302,0.7024794816970825
f18fa8bf-33ac-4d86-a008-814929057197,06de69ea-30e8-4081-8e83-788a0374f8b7,1760443610533023505,-2.578735,-1.25885,0.837326,-0.039062,-0.413574,0.947266,1.7796375112718408,-23.218679052221347,91.99534929832876,0.682641863822937,-0.15072256326675415,-0.13416753709316254,0.7023400664329529
f18fa8bf-33ac-4d86-a008-814929057197,06de69ea-30e8-4081-8e83-788a0374f8b7,1760443610541027505,-2.151489,-0.892639,0.291824,-0.032715,-0.42334,0.950684,1.7762675379151922,-23.24508093581697,92.040693735073,0.6823302507400513,-0.15080498158931732,-0.13441011309623718,0.7025787234306335
f18fa8bf-33ac-4d86-a008-814929057197,06de69ea-30e8-4081-8e83-788a0374f8b7,1760443610549031505,-1.907349,-0.831604,0.291824,-0.030762,-0.413574,0.951172,1.7718002300739506,-23.26738953978168,91.98077757618218,0.6826671361923218,-0.1509798914194107,-0.13449540734291077,0.7021974921226501
f18fa8bf-33ac-4d86-a008-814929057197,06de69ea-30e8-4081-8e83-788a0374f8b7,1760443610557035505,-1.665115,-1.321793,0.291824,-0.020996,-0.415527,0.960937,1.7681528424454998,-23.287602407751915,91.91958347019775,0.6830149292945862,-0.15114904940128326,-0.13456106185913086,0.7018101811408997
f18fa8bf-33ac-4d86-a008-814929057197,06de69ea-30e8-4081-8e83-788a0374f8b7,1760443610567689505,-1.419067,-1.075745,0.349045,-0.031738,-0.421875,0.956543,1.757896097044381,-23.30242716828932,91.87465768689131,0.6832612156867981,-0.15122681856155396,-0.13465426862239838,0.7015357613563538
f18fa8bf-33ac-4d86-a008-814929057197,06de69ea-30e8-4081-8e83-788a0374f8b7,1760443610578343505,-0.688553,-1.199722,0.047684,-0.034668,-0.414551,0.94873,1.754060520959968,-23.31692169400602,91.8192952626995,0.68357914686203,-0.15135428309440613,-0.13469330966472626,0.7011910080909729
f18fa8bf-33ac-4d86-a008-814929057197,06de69ea-30e8-4081-8e83-788a0374f8b7,1760443610588997505,-0.257492,-1.199722,-0.257492,-0.039551,-0.413086,0.963379,1.7512507644872652,-23.323789562181094,91.7436133121376,0.6840310096740723,-0.1514667570590973,-0.13465234637260437,0.7007337808609009
f18fa8bf-33ac-4d86-a008-814929057197,06de69ea-30e8-4081-8e83-788a0374f8b7,1760443610599676505,-0.320435,-1.441956,0.108719,-0.029297,-0.401855,0.951172,1.7417377905335505,-23.326206686515107,91.59486064121644,0.6849261522293091,-0.15159767866134644,-0.134527325630188,0.6998545527458191
f18fa8bf-33ac-4d86-a008-814929057197,06de69ea-30e8-4081-8e83-788a0374f8b7,1760443610610358505,0.167847,-1.38092,-0.257492,-0.044922,-0.425781,0.960449,1.73211200389399,-23.326296171833718,91.57345339831197,0.6850454807281494,-0.1515645682811737,-0.1345570981502533,0.6997391581535339
f18fa8bf-33ac-4d86-a008-814929057197,06de69ea-30e8-4081-8e83-788a0374f8b7,1760443610621040505,0.656128,-1.564026,-0.627518,-0.036133,-0.40332,0.949219,1.7182966371106434,-23.319507974065395,91.5261079750253,0.6853260397911072,-0.15149547159671783,-0.13453540205955505,0.6994835734367371
f18fa8bf-33ac-4d86-a008-814929057197,06de69ea-30e8-4081-8e83-788a0374f8b7,1760443610629019505,0.961304,-0.770569,-0.562668,-0.031738,-0.408203,0.947754,1.7041635497097016,-23.31768261720212,91.49758704957706,0.6854856014251709,-0.1514318585395813,-0.13457103073596954,0.6993340849876404
f18fa8bf-33ac-4d86-a008-814929057197,06de69ea-30e8-4081-8e83-788a0374f8b7,1760443610637001505,0.350952,-0.648499,-0.501633,-0.032227,-0.419434,0.942383,1.7070576808960907,-23.319890696240932,91.5080840613513,0.685422420501709,-0.15145032107830048,-0.13458114862442017,0.6993900537490845
f18fa8bf-33ac-4d86-a008-814929057197,06de69ea-30e8-4081-8e83-788a0374f8b7,1760443610644983505,0.717163,-0.587463,-0.684738,-0.032227,-0.399414,0.938477,1.7092643308378705,-23.32426105426227,91.48714317488886,0.6855478286743164,-0.15151435136795044,-0.13456709682941437,0.6992560029029846
f18fa8bf-33ac-4d86-a008-814929057197,06de69ea-30e8-4081-8e83-788a0374f8b7,1760443610660972505,0.717163,-0.465393,-0.501633,-0.03125,-0.408691,0.944336,1.709762791722747,-23.3277557616146,91.35039114949954,0.6863784193992615,-0.15169867873191833,-0.13440462946891785,0.6984319686889648
f18fa8bf-33ac-4d86-a008-814929057197,06de69ea-30e8-4081-8e83-788a0374f8b7,1760443610668980505,0.778198,-0.465393,-0.379562,-0.027344,-0.419922,0.955078,1.7105638906090779,-23.32983941322578,91.28217820980802,0.6867926120758057,-0.15179593861103058,-0.13432227075099945,0.6980194449424744
f18fa8bf-33ac-4d86-a008-814929057197,06de69ea-30e8-4081-8e83-788a0374f8b7,1760443610676988505,0.902176,-0.040054,-0.257492,-0.030273,-0.411621,0.947754,1.7102670337731538,-23.32510785393559,91.21269209583207,0.6872208118438721,-0.15184736251831055,-0.1342030018568039,0.6976096034049988
f18fa8bf-33ac-4d86-a008-814929057197,06de69ea-30e8-4081-8e83-788a0374f8b7,1760443610684996505,1.205444,0.083923,-0.562668,-0.037598,-0.40918,0.938965,1.7136452505994688,-23.326204629226694,91.13115742606306,0.6877197027206421,-0.15196990966796875,-0.13408136367797852,0.6971144676208496
f18fa8bf-33ac-4d86-a008-814929057197,06de69ea-30e8-4081-8e83-788a0374f8b7,1760443610695678505,1.569748,-0.040054,-0.139236,-0.023438,-0.411133,0.940918,1.711568756410216,-23.31326731154471,91.06756801789639,0.6881188154220581,-0.15195445716381073,-0.13393034040927887,0.6967529654502869
f18fa8bf-33ac-4d86-a008-814929057197,06de69ea-30e8-4081-8e83-788a0374f8b7,1760443610706360505,1.630783,-0.040054,-0.013351,-0.042969,-0.416504,0.936523,1.715142776101454,-23.306559870477578,91.03542753891882,0.6883260607719421,-0.15197370946407318,-0.13382522761821747,0.6965641975402832
f18fa8bf-33ac-4d86-a008-814929057197,06de69ea-30e8-4081-8e83-788a0374f8b7,1760443610717042505,0.961304,0.083923,-0.074387,-0.039062,-0.403809,0.933105,1.7205472750800834,-23.30764364462743,90.9837311821291,0.6886453032493591,-0.15207336843013763,-0.13373079895973206,0.696245014667511
f18fa8bf-33ac-4d86-a008-814929057197,06de69ea-30e8-4081-8e83-788a0374f8b7,1760443610727687505,0.778198,0.389099,-0.074387,-0.026367,-0.410156,0.922363,1.7231514280767757,-23.314612736799535,90.89989422693152,0.6891495585441589,-0.15222862362861633,-0.1336464136838913,0.6957281827926636
f18fa8bf-33ac-4d86-a008-814929057197,06de69ea-30e8-4081-8e83-788a0374f8b7,1760443610738331505,0.289917,0.572205,-0.074387,-0.033691,-0.403809,0.931641,1.7237219070967562,-23.31887522744895,90.8655012200868,0.6893541216850281,-0.15229767560958862,-0.13362331688404083,0.6955147981643677
f18fa8bf-33ac-4d86-a008-814929057197,06de69ea-30e8-4081-8e83-788a0374f8b7,1760443610748975505,-0.322342,0.448227,-0.074387,-0.036621,-0.413574,0.939941,1.7249345200558042,-23.31961086531537,90.82387086240486,0.6896073222160339,-0.15235796570777893,-0.13356517255306244,0.6952617168426514
f18fa8bf-33ac-4d86-a008-814929057197,06de69ea-30e8-4081-8e83-788a0374f8b7,1760443610756996505,-0.137329,0.511169,-0.440598,-0.027344,-0.408691,0.938965,1.7286032348397666,-23.328586083382127,90.70325687123774,0.6903327107429504,-0.15257443487644196,-0.1334373652935028,0.694518506526947
f18fa8bf-33ac-4d86-a008-814929057197,06de69ea-30e8-4081-8e83-788a0374f8b7,1760443610765018505,-0.259399,0.75531,-0.684738,-0.037109,-0.393066,0.950195,1.7284532662500764,-23.327803996507587,90.64464005707634,0.6906886100769043,-0.1526370793581009,-0.13335543870925903,0.6941665410995483
f18fa8bf-33ac-4d86-a008-814929057197,06de69ea-30e8-4081-8e83-788a0374f8b7,1760443610773040505,0.047684,0.265121,-0.501633,-0.021484,-0.424805,0.955078,1.7273047134416826,-23.33206844796536,90.58697992273774,0.6910315752029419,-0.1527227759361267,-0.13331152498722076,0.6938146352767944
f18fa8bf-33ac-4d86-a008-814929057197,06de69ea-30e8-4081-8e83-788a0374f8b7,1760443610781062505,0.230789,0.448227,-0.257492,-0.036621,-0.408691,0.943848,1.7274157991702623,-23.334020879259274,90.52473153477357,0.69140625,-0.1528075486421585,-0.1332397609949112,0.6934363842010498
f18fa8bf-33ac-4d86-a008-814929057197,06de69ea-30e8-4081-8e83-788a0374f8b7,1760443610791697505,0.28801,0.265121,-0.379562,-0.046875,-0.410156,0.936035,1.7336679573852734,-23.33366766964267,90.45741507468192,0.6918211579322815,-0.15292148292064667,-0.13311007618904114,0.6930222511291504
f18fa8bf-33ac-4d86-a008-814929057197,06de69ea-30e8-4081-8e83-788a0374f8b7,1760443610802332505,0.534058,0.450134,-0.322342,-0.034668,-0.422363,0.95459,1.7365362157155741,-23.335715140923305,90.49184946204736,0.6916138529777527,-0.15291109681129456,-0.13315117359161377,0.6932235956192017
f18fa8bf-33ac-4d86-a008-814929057197,06de69ea-30e8-4081-8e83-788a0374f8b7,1760443610812967505,1.022339,0.572205,0.047684,-0.036133,-0.40332,0.937988,1.74163267140578,-23.336564760050184,90.49913000942888,0.69157475233078,-0.152938574552536,-0.13313530385494232,0.6932595372200012
f18fa8bf-33ac-4d86-a008-814929057197,06de69ea-30e8-4081-8e83-788a0374f8b7,1760443610823656505,0.71907,0.265121,-0.074387,-0.023437,-0.412109,0.945801,1.7435203524692358,-23.3357889252749,90.44615932733561,0.6918982267379761,-0.15300686657428741,-0.13304847478866577,0.6929382681846619
f18fa8bf-33ac-4d86-a008-814929057197,06de69ea-30e8-4081-8e83-788a0374f8b7,1760443610834345505,0.717163,0.205994,0.230789,-0.031738,-0.399902,0.919434,1.7457040835244704,-23.337474580246557,90.44306416990358,0.6919175386428833,-0.1530337631702423,-0.1330414116382599,0.6929144859313965
f18fa8bf-33ac-4d86-a008-814929057197,06de69ea-30e8-4081-8e83-788a0374f8b7,1760443610845034505,0.900269,-0.282288,0.047684,-0.022949,-0.399902,0.937012,1.7476153674282398,-23.337018453933908,90.4150369910922,0.6920897364616394,-0.15307511389255524,-0.13298965990543365,0.6927433013916016
f18fa8bf-33ac-4d86-a008-814929057197,06de69ea-30e8-4081-8e83-788a0374f8b7,1760443610854982505,-0.015259,-0.587463,-0.196457,-0.030762,-0.398438,0.941406,1.747329932015768,-23.339950365477062,90.26608700978808,0.6929858922958374,-0.15326376259326935,-0.13281011581420898,0.6918394565582275
f18fa8bf-33ac-4d86-a008-814929057197,06de69ea-30e8-4081-8e83-788a0374f8b7,1760443610864929505,-0.200272,-1.016617,0.291824,-0.028809,-0.400879,0.9375,1.7487606256813415,-23.337781849537755,90.19203666642927,0.6934369802474976,-0.15334513783454895,-0.1326892226934433,0.6913925409317017
f18fa8bf-33ac-4d86-a008-814929057197,06de69ea-30e8-4081-8e83-788a0374f8b7,1760443610874876505,-0.200272,-1.016617,0.165939,-0.03125,-0.410156,0.942383,1.748799107367598,-23.33696092500292,90.13373280416869,0.6937896609306335,-0.15340793132781982,-0.13260596990585327,0.6910406351089478
f18fa8bf-33ac-4d86-a008-814929057197,06de69ea-30e8-4081-8e83-788a0374f8b7,1760443610884823505,0.165939,-1.016617,-0.013351,-0.032715,-0.414551,0.946289,1.7434912872441632,-23.337324057923755,90.07218849255165,0.6941541433334351,-0.15344931185245514,-0.1325579136610031,0.6906746029853821
f18fa8bf-33ac-4d86-a008-814929057197,06de69ea-30e8-4081-8e83-788a0374f8b7,1760443610892883505,0.717163,-0.526428,0.291824,-0.033691,-0.411133,0.949219,1.739815772717232,-23.33271786407307,89.99864928888992,0.6945983171463013,-0.15348446369171143,-0.1324537694454193,0.6902400851249695
f18fa8bf-33ac-4d86-a008-814929057197,06de69ea-30e8-4081-8e83-788a0374f8b7,1760443610900942505,1.51062,-0.099182,0.291824,-0.032227,-0.408691,0.961426,1.7369114399135663,-23.329254696363282,89.98000350723808,0.6947112679481506,-0.15346765518188477,-0.13242541253566742,0.6901355981826782
f18fa8bf-33ac-4d86-a008-814929057197,06de69ea-30e8-4081-8e83-788a0374f8b7,1760443610909001505,1.813889,-0.22316,0.597,-0.036621,-0.40918,0.953613,1.7351314049905786,-23.31279393610538,89.95567192559271,0.6948747634887695,-0.15338586270809174,-0.1323038786649704,0.6900124549865723
f18fa8bf-33ac-4d86-a008-814929057197,06de69ea-30e8-4081-8e83-788a0374f8b7,1760443610917060505,2.182007,0.205994,0.71907,-0.047852,-0.413086,0.955566,1.74068987654075,-23.2925453162592,89.91610080426067,0.6951428055763245,-0.15334293246269226,-0.13209453225135803,0.6897920966148376
f18fa8bf-33ac-4d86-a008-814929057197,06de69ea-30e8-4081-8e83-788a0374f8b7,1760443610925119505,2.058029,0.814438,0.71907,-0.035156,-0.408691,0.944824,1.7490761187859227,-23.274224125370488,89.87328608559129,0.6954312920570374,-0.15333224833011627,-0.1318753957748413,0.6895455718040466
f18fa8bf-33ac-4d86-a008-814929057197,06de69ea-30e8-4081-8e83-788a0374f8b7,1760443610935747505,2.365112,0.999451,1.207352,-0.035156,-0.394531,0.945801,1.7621857411972388,-23.25612069540256,89.82722841432175,0.6957443356513977,-0.15335486829280853,-0.13162457942962646,0.6892726421356201
f18fa8bf-33ac-4d86-a008-814929057197,06de69ea-30e8-4081-8e83-788a0374f8b7,1760443610946375505,2.42424,0.814438,1.020432,-0.035645,-0.391113,0.94043,1.7780504490539053,-23.231847287906067,89.7811161983908,0.6960678100585938,-0.15335670113563538,-0.13131961226463318,0.6890037655830383
f18fa8bf-33ac-4d86-a008-814929057197,06de69ea-30e8-4081-8e83-788a0374f8b7,1760443610957003505,2.243042,0.694275,1.020432,-0.026367,-0.384766,0.924316,1.79216377284875,-23.2066197194602,89.71565080223955,0.6965065002441406,-0.1533641368150711,-0.13099361956119537,0.6886208057403564
f18fa8bf-33ac-4d86-a008-814929057197,06de69ea-30e8-4081-8e83-788a0374f8b7,1760443610967668505,1.693726,0.75531,1.325607,-0.025879,-0.384766,0.941894,1.8106553972301025,-23.164686383464606,89.61171896710563,0.6972000598907471,-0.1533404141664505,-0.1304885596036911,0.688019871711731
f18fa8bf-33ac-4d86-a008-814929057197,06de69ea-30e8-4081-8e83-788a0374f8b7,1760443610978333505,1.081467,0.814438,1.142502,-0.038574,-0.376953,0.938477,1.8235811456897146,-23.149296206779088,89.58748336133347,0.6973779201507568,-0.1533525437116623,-0.13028447329998016,0.6878755688667297
f18fa8bf-33ac-4d86-a008-814929057197,06de69ea-30e8-4081-8e83-788a0374f8b7,1760443610988998505,0.473022,0.999451,0.780106,-0.03418,-0.391602,0.922852,1.8211734038027347,-23.146286027471504,89.51974505550358,0.6977851390838623,-0.153396874666214,-0.13019028306007385,0.6874704360961914
f18fa8bf-33ac-4d86-a008-814929057197,06de69ea-30e8-4081-8e83-788a0374f8b7,1760443610999668505,-0.320435,1.060486,-0.013351,-0.026367,-0.403809,0.935547,1.8215393953244394,-23.1467820390178,89.48134299656711,0.6980153322219849,-0.15344569087028503,-0.13013963401317596,0.687235414981842
f18fa8bf-33ac-4d86-a008-814929057197,06de69ea-30e8-4081-8e83-788a0374f8b7,1760443611010337505,-0.745773,1.424789,-0.684738,-0.02832,-0.399902,0.941894,1.8256729943368855,-23.15084683328486,89.48157640674286,0.698013961315155,-0.15349481999874115,-0.1301393061876297,0.687225878238678
f18fa8bf-33ac-4d86-a008-814929057197,06de69ea-30e8-4081-8e83-788a0374f8b7,1760443611021006505,-0.747681,1.304626,-1.41716,-0.031738,-0.401855,0.9375,1.834899905873821,-23.157237694687794,89.43340861677972,0.6983059048652649,-0.15364351868629456,-0.13005711138248444,0.6869115233421326
f18fa8bf-33ac-4d86-a008-814929057197,06de69ea-30e8-4081-8e83-788a0374f8b7,1760443611031702505,-1.113892,1.609802,-1.661301,-0.023438,-0.399902,0.948242,1.8429661288687986,-23.166677279082066,89.25867978270365,0.6993507742881775,-0.1539471596479416,-0.12983033061027527,0.685822606086731
f18fa8bf-33ac-4d86-a008-814929057197,06de69ea-30e8-4081-8e83-788a0374f8b7,1760443611042398505,-0.747681,1.670837,-1.905441,-0.035156,-0.386719,0.942383,1.85544535945743,-23.167401973604125,89.18418048731755,0.6998097896575928,-0.15411056578159332,-0.12965837121009827,0.6853500604629517
f18fa8bf-33ac-4d86-a008-814929057197,06de69ea-30e8-4081-8e83-788a0374f8b7,1760443611053094505,-0.505447,1.791,-2.393723,-0.031738,-0.38623,0.945312,1.8615380841461828,-23.16841304415041,89.09941777061913,0.7003222703933716,-0.15424898266792297,-0.1295131891965866,0.684822678565979
f18fa8bf-33ac-4d86-a008-814929057197,06de69ea-30e8-4081-8e83-788a0374f8b7,1760443611061088505,0.045776,1.609802,-2.515793,-0.040039,-0.399902,0.942871,1.868542869587737,-23.166467551708692,89.00416140247037,0.700901448726654,-0.15438659489154816,-0.12933038175106049,0.6842334270477295
f18fa8bf-33ac-4d86-a008-814929057197,06de69ea-30e8-4081-8e83-788a0374f8b7,1760443611069082505,0.045776,1.548767,-2.458572,-0.034668,-0.397461,0.962891,1.8762210819331133,-23.165991367422777,88.95163732121848,0.7012242078781128,-0.15448878705501556,-0.1292097568511963,0.683902382850647
f18fa8bf-33ac-4d86-a008-814929057197,06de69ea-30e8-4081-8e83-788a0374f8b7,1760443611077076505,0.045776,1.548767,-2.515793,-0.037598,-0.40332,0.942871,1.8825417222296086,-23.166199700820734,88.9607604148957,0.701176643371582,-0.1545175015926361,-0.12918463349342346,0.68394935131073
f18fa8bf-33ac-4d86-a008-814929057197,06de69ea-30e8-4081-8e83-788a0374f8b7,1760443611085070505,-0.137329,1.731873,-2.637863,-0.03125,-0.406738,0.935547,1.8927885829048476,-23.16843052157029,88.89652471607656,0.7015689015388489,-0.15466457605361938,-0.1290486603975296,0.6835394501686096
f18fa8bf-33ac-4d86-a008-814929057197,06de69ea-30e8-4081-8e83-788a0374f8b7,1760443611095711505,-0.076294,2.159119,-2.820969,-0.039551,-0.398926,0.927734,1.9026328203603602,-23.17099928748119,88.84639377438492,0.7018759846687317,-0.1547953337430954,-0.12893611192703247,0.6832157969474792
f18fa8bf-33ac-4d86-a008-814929057197,06de69ea-30e8-4081-8e83-788a0374f8b7,1760443611106352505,-0.566483,2.096176,-3.126144,-0.038574,-0.394531,0.933105,1.9088327554623508,-23.17567776776116,88.83118268965981,0.701968252658844,-0.15487788617610931,-0.12890566885471344,0.6831079721450806
f18fa8bf-33ac-4d86-a008-814929057197,06de69ea-30e8-4081-8e83-788a0374f8b7,1760443611116993505,-0.686646,2.037048,-3.435135,-0.036133,-0.410645,0.939453,1.9211097306357807,-23.1837833187068,88.77343306995859,0.7023168802261353,-0.15506531298160553,-0.12880098819732666,0.6827268004417419
f18fa8bf-33ac-4d86-a008-814929057197,06de69ea-30e8-4081-8e83-788a0374f8b7,1760443611124990505,-1.113892,1.914978,-3.858566,-0.036133,-0.398926,0.935547,1.9331810829109637,-23.209061802703374,88.62085895118928,0.703209638595581,-0.1554625779390335,-0.128671795129776,0.6817411184310913
f18fa8bf-33ac-4d86-a008-814929057197,06de69ea-30e8-4081-8e83-788a0374f8b7,1760443611132986505,-1.176834,2.096176,-4.041672,-0.038574,-0.40625,0.937988,1.9381188481782403,-23.21824971842334,88.55215666826943,0.7036131620407104,-0.1556250900030136,-0.1286032646894455,0.6813004612922668
f18fa8bf-33ac-4d86-a008-814929057197,06de69ea-30e8-4081-8e83-788a0374f8b7,1760443611140982505,-1.176834,2.096176,-4.228592,-0.047363,-0.401367,0.928711,1.9485085325819267,-23.232132587676503,88.50309315094634,0.7039003968238831,-0.15582658350467682,-0.12855589389801025,0.6809665560722351
f18fa8bf-33ac-4d86-a008-814929057197,06de69ea-30e8-4081-8e83-788a0374f8b7,1760443611148978505,-0.930786,1.670837,-4.285812,-0.042969,-0.399902,0.933594,1.9527703568242196,-23.242222013328373,88.38022613246348,0.7046232223510742,-0.15605124831199646,-0.12842285633087158,0.680192232131958
f18fa8bf-33ac-4d86-a008-814929057197,06de69ea-30e8-4081-8e83-788a0374f8b7,1760443611159700505,-1.296997,1.853943,-4.594803,-0.040527,-0.412109,0.92041,1.9541199279301056,-23.261346407132635,88.29425795220378,0.705112636089325,-0.15627244114875793,-0.1284116953611374,0.6796361207962036
f18fa8bf-33ac-4d86-a008-814929057197,06de69ea-30e8-4081-8e83-788a0374f8b7,1760443611170422505,-0.930786,1.304626,-4.652023,-0.042969,-0.40332,0.946777,1.9533858741615207,-23.26988500075389,88.2790501782103,0.7051920890808105,-0.15633732080459595,-0.12844647467136383,0.6795321702957153
f18fa8bf-33ac-4d86-a008-814929057197,06de69ea-30e8-4081-8e83-788a0374f8b7,1760443611181144505,-1.054764,1.302719,-4.835129,-0.029297,-0.414062,0.944824,1.9486266288007092,-23.280419281033026,88.17123765630768,0.7058135271072388,-0.1564943492412567,-0.12839150428771973,0.6788609027862549
f18fa8bf-33ac-4d86-a008-814929057197,06de69ea-30e8-4081-8e83-788a0374f8b7,1760443611191769505,-0.869751,1.060486,-4.774094,-0.040527,-0.401367,0.946777,1.9416252208480274,-23.284637742016844,88.0790889627642,0.7063464522361755,-0.15658192336559296,-0.1283339262008667,0.6782971024513245
f18fa8bf-33ac-4d86-a008-814929057197,06de69ea-30e8-4081-8e83-788a0374f8b7,1760443611202393505,-0.50354,0.75531,-4.652023,-0.050293,-0.401367,0.936523,1.9343957326745254,-23.293486658143486,88.02832704648195,0.7066284418106079,-0.15665018558502197,-0.12836186587810516,0.6779822707176208
f18fa8bf-33ac-4d86-a008-814929057197,06de69ea-30e8-4081-8e83-788a0374f8b7,1760443611213017505,-0.017166,0.631332,-4.652023,-0.043945,-0.408203,0.941406,1.9286402800212101,-23.2994370623226,87.97723160057507,0.7069172859191895,-0.15670983493328094,-0.12836295366287231,0.6776670813560486
f18fa8bf-33ac-4d86-a008-814929057197,06de69ea-30e8-4081-8e83-788a0374f8b7,1760443611223696505,-0.566483,0.692368,-4.285812,-0.043945,-0.404785,0.941406,1.910576359066745,-23.30851996962157,87.84220593597425,0.7076844573020935,-0.15681001543998718,-0.12834380567073822,0.6768462657928467
f18fa8bf-33ac-4d86-a008-814929057197,06de69ea-30e8-4081-8e83-788a0374f8b7,1760443611234376505,-0.442505,0.450134,-4.529953,-0.041992,-0.410156,0.941406,1.9000337614009608,-23.31312267217467,87.77279165335317,0.7080771327018738,-0.15685375034809113,-0.12834130227565765,0.6764258146286011
f18fa8bf-33ac-4d86-a008-814929057197,06de69ea-30e8-4081-8e83-788a0374f8b7,1760443611245056505,-0.442505,0.511169,-4.529953,-0.041504,-0.398926,0.935547,1.8874200396788023,-23.32004295872695,87.722785279121,0.7083500027656555,-0.1568778157234192,-0.12839193642139435,0.6761248707771301
f18fa8bf-33ac-4d86-a008-814929057197,06de69ea-30e8-4081-8e83-788a0374f8b7,1760443611255733505,-0.320435,0.572205,-4.957199,-0.04248,-0.418945,0.94043,1.8757202137095808,-23.326763412135755,87.62658890812628,0.7088963389396667,-0.15695787966251373,-0.12837247550487518,0.675537109375
f18fa8bf-33ac-4d86-a008-814929057197,06de69ea-30e8-4081-8e83-788a0374f8b7,1760443611266409505,-0.686646,0.511169,-4.957199,-0.035645,-0.405762,0.938477,1.866129877993062,-23.336933273517,87.56021132171308,0.7092648148536682,-0.15703824162483215,-0.1284012347459793,0.6751261353492737
f18fa8bf-33ac-4d86-a008-814929057197,06de69ea-30e8-4081-8e83-788a0374f8b7,1760443611277085505,-0.50354,0.389099,-4.957199,-0.038086,-0.404297,0.937988,1.8524799362286168,-23.342995669168026,87.54191258373987,0.7093501687049866,-0.1570156365633011,-0.12849661707878113,0.6750234961509705
f18fa8bf-33ac-4d86-a008-814929057197,06de69ea-30e8-4081-8e83-788a0374f8b7,1760443611285092505,-0.62561,-0.099182,-5.140305,-0.043945,-0.416992,0.945801,1.8275955222809337,-23.3553558137247,87.3933243025291,0.7101823687553406,-0.15711185336112976,-0.12852035462856293,0.6741209626197815
f18fa8bf-33ac-4d86-a008-814929057197,06de69ea-30e8-4081-8e83-788a0374f8b7,1760443611293100505,-0.871658,-0.34523,-5.140305,-0.02832,-0.401855,0.932129,1.807507969940611,-23.364709245755847,87.28710198728716,0.7107733488082886,-0.15717051923274994,-0.12855461239814758,0.6734775900840759
f18fa8bf-33ac-4d86-a008-814929057197,06de69ea-30e8-4081-8e83-788a0374f8b7,1760443611301108505,-0.688553,-0.34523,-5.140305,-0.024902,-0.402344,0.949219,1.782194315695478,-23.369325549614867,87.18210307892593,0.7113562822341919,-0.15716809034347534,-0.12859497964382172,0.6728547215461731
f18fa8bf-33ac-4d86-a008-814929057197,06de69ea-30e8-4081-8e83-788a0374f8b7,1760443611309116505,-0.62561,-0.587463,-5.140305,-0.043457,-0.413574,0.958496,1.7596015280133843,-23.375759412433855,87.08194997280235,0.7119110822677612,-0.15718762576580048,-0.1286359280347824,0.6722552180290222
f18fa8bf-33ac-4d86-a008-814929057197,06de69ea-30e8-4081-8e83-788a0374f8b7,1760443611319914505,-0.442505,-0.953674,-5.506516,-0.016602,-0.399414,0.952637,1.7294844003941265,-23.380208431863537,86.971320437521,0.7125206589698792,-0.15716272592544556,-0.12869763374328613,0.6716031432151794
f18fa8bf-33ac-4d86-a008-814929057197,06de69ea-30e8-4081-8e83-788a0374f8b7,1760443611330712505,-0.62561,-0.282288,-6.116867,-0.019531,-0.410156,0.948242,1.6994638204862422,-23.383637891357328,86.88463330474912,0.7129907011985779,-0.1571054458618164,-0.12878571450710297,0.6711006164550781
f18fa8bf-33ac-4d86-a008-814929057197,06de69ea-30e8-4081-8e83-788a0374f8b7,1760443611341510505,-0.50354,-0.648499,-6.547928,-0.034668,-0.400879,0.944336,1.6692005874151863,-23.386553458433525,86.83737455308322,0.7132298946380615,-0.15699942409992218,-0.12892645597457886,0.6708441972732544
f18fa8bf-33ac-4d86-a008-814929057197,06de69ea-30e8-4081-8e83-788a0374f8b7,1760443611352011505,-0.259399,-0.831604,-7.276535,-0.017578,-0.410156,0.943848,1.6362506829182764,-23.38702240479602,86.76061541653146,0.7136414647102356,-0.15689589083194733,-0.12902922928333282,0.6704108119010925
f18fa8bf-33ac-4d86-a008-814929057197,06de69ea-30e8-4081-8e83-788a0374f8b7,1760443611362513505,-0.383377,-0.711441,-7.581711,-0.023926,-0.408203,0.941894,1.6010957333168663,-23.390347326253206,86.64345948146816,0.7142829298973083,-0.1568428874015808,-0.12910744547843933,0.6697246432304382
f18fa8bf-33ac-4d86-a008-814929057197,06de69ea-30e8-4081-8e83-788a0374f8b7,1760443611373015505,-0.259399,-0.831604,-7.886887,-0.034668,-0.412598,0.940918,1.5661513524643167,-23.394274317644317,86.57606523095636,0.7146325707435608,-0.1567390412092209,-0.12925618886947632,0.6693471670150757
f18fa8bf-33ac-4d86-a008-814929057197,06de69ea-30e8-4081-8e83-788a0374f8b7,1760443611381027505,-0.747681,-0.892639,-7.829666,-0.022461,-0.412109,0.938477,1.5042133376471567,-23.408649547504336,86.40557631476108,0.71554034948349,-0.15665924549102783,-0.12949396669864655,0.6683493256568909
f18fa8bf-33ac-4d86-a008-814929057197,06de69ea-30e8-4081-8e83-788a0374f8b7,1760443611389040505,-0.993729,-0.833511,-7.52449,-0.045898,-0.40332,0.943848,1.4748894188895507,-23.417551992570786,86.29284330272547,0.7161535620689392,-0.15667106211185455,-0.1295752227306366,0.6676737070083618
f18fa8bf-33ac-4d86-a008-814929057197,06de69ea-30e8-4081-8e83-788a0374f8b7,1760443611397053505,-0.810623,-1.199722,-7.52449,-0.030762,-0.420898,0.947266,1.4404036913880742,-23.428772993183244,86.1839758321093,0.7167348861694336,-0.1566632091999054,-0.1297077089548111,0.6670256853103638
f18fa8bf-33ac-4d86-a008-814929057197,06de69ea-30e8-4081-8e83-788a0374f8b7,1760443611405066505,-0.810623,-1.016617,-7.154465,-0.054687,-0.40625,0.939453,1.414454280685897,-23.43904601869883,86.0884533678263,0.7172487378120422,-0.15668435394763947,-0.12979957461357117,0.6664502620697021
f18fa8bf-33ac-4d86-a008-814929057197,06de69ea-30e8-4081-8e83-788a0374f8b7,1760443611415737505,-0.688553,-1.321793,-6.910324,-0.038574,-0.414551,0.947754,1.3853069733974344,-23.449536176803075,86.00041633059597,0.7177146673202515,-0.15668004751205444,-0.129923015832901,0.6659253835678101
f18fa8bf-33ac-4d86-a008-814929057197,06de69ea-30e8-4081-8e83-788a0374f8b7,1760443611426408505,-0.566483,-1.504898,-6.547928,-0.037598,-0.417969,0.952637,1.3596662254188896,-23.455111585966954,85.92111770051126,0.7181394100189209,-0.15665578842163086,-0.130007803440094,0.6654565334320068
f18fa8bf-33ac-4d86-a008-814929057197,06de69ea-30e8-4081-8e83-788a0374f8b7,1760443611437079505,-0.198364,-1.441956,-5.994797,-0.033691,-0.405762,0.956055,1.3316573369410973,-23.456629470006664,85.9161313540253,0.7181347012519836,-0.15650826692581177,-0.13018538057804108,0.6654615998268127
f18fa8bf-33ac-4d86-a008-814929057197,06de69ea-30e8-4081-8e83-788a0374f8b7,1760443611447753505,-0.076294,-1.075745,-5.083084,-0.034668,-0.407715,0.957031,1.306029019273572,-23.46100436994665,85.8794719070003,0.7183130383491516,-0.15642844140529633,-0.13032148778438568,0.6652611494064331
f18fa8bf-33ac-4d86-a008-814929057197,06de69ea-30e8-4081-8e83-788a0374f8b7,1760443611458427505,0.473022,-1.13678,-4.899979,-0.036621,-0.418457,0.943848,1.2842836586483513,-23.46125308160317,85.7854891844186,0.7188333868980408,-0.15641069412231445,-0.13033100962638855,0.6647011637687683
f18fa8bf-33ac-4d86-a008-814929057197,06de69ea-30e8-4081-8e83-788a0374f8b7,1760443611469101505,0.717163,-1.075745,-4.899979,-0.031738,-0.399902,0.934082,1.2630580488074263,-23.45855527374843,85.74766721146787,0.7190319299697876,-0.15631376206874847,-0.13039684295654297,0.6644963026046753
f18fa8bf-33ac-4d86-a008-814929057197,06de69ea-30e8-4081-8e83-788a0374f8b7,1760443611477107505,0.717163,-0.831604,-4.716873,-0.027344,-0.403809,0.929199,1.220803710084769,-23.448470632600674,85.63176383855303,0.7196680903434753,-0.15613771975040436,-0.13044534623622894,0.6638392210006714
f18fa8bf-33ac-4d86-a008-814929057197,06de69ea-30e8-4081-8e83-788a0374f8b7,1760443611485115505,0.473022,-0.770569,-4.652023,-0.021973,-0.394043,0.93457,1.195311760232863,-23.44394422239133,85.56611449475314,0.7200248837471008,-0.15603651106357574,-0.13048972189426422,0.663467288017273
f18fa8bf-33ac-4d86-a008-814929057197,06de69ea-30e8-4081-8e83-788a0374f8b7,1760443611493123505,0.350952,-1.13678,-4.529953,-0.030762,-0.415039,0.928223,1.1748438019137561,-23.444600726028067,85.51200508598758,0.7203139662742615,-0.15598377585411072,-0.13054850697517395,0.6631542444229126
f18fa8bf-33ac-4d86-a008-814929057197,06de69ea-30e8-4081-8e83-788a0374f8b7,1760443611509109505,0.289917,-0.770569,-4.594803,-0.027832,-0.410156,0.933105,1.1569500557795578,-23.443076163646893,85.45950383687307,0.7205992341041565,-0.1559305191040039,-0.13058069348335266,0.6628504395484924
f18fa8bf-33ac-4d86-a008-814929057197,06de69ea-30e8-4081-8e83-788a0374f8b7,1760443611517089505,-0.017166,-0.528336,-4.285812,-0.021973,-0.414551,0.954102,1.138031283468254,-23.44411832811022,85.39814084313203,0.7209312319755554,-0.1558975726366043,-0.1306222528219223,0.6624889373779297
f18fa8bf-33ac-4d86-a008-814929057197,06de69ea-30e8-4081-8e83-788a0374f8b7,1760443611525069505,0.28801,-0.650406,-4.102707,-0.022461,-0.413574,0.949707,1.1183585826931965,-23.445508049772144,85.32178667426338,0.7213483452796936,-0.1558796465396881,-0.13065025210380554,0.6620333790779114
f18fa8bf-33ac-4d86-a008-814929057197,06de69ea-30e8-4081-8e83-788a0374f8b7,1760443611533049505,0.411987,-0.831604,-4.228592,-0.022949,-0.425781,0.946289,1.098052719275887,-23.444040005556893,85.30644622956173,0.721415638923645,-0.15577062964439392,-0.1307487040758133,0.6619662642478943
f18fa8bf-33ac-4d86-a008-814929057197,06de69ea-30e8-4081-8e83-788a0374f8b7,1760443611543740505,0.593185,-0.4673,-3.614426,-0.029785,-0.405273,0.953613,1.0791558902746328,-23.44277432232104,85.25603929475037,0.7216867804527283,-0.1557110697031021,-0.13079184293746948,0.6616761684417725
f18fa8bf-33ac-4d86-a008-814929057197,06de69ea-30e8-4081-8e83-788a0374f8b7,1760443611554431505,0.902176,-0.040054,-3.492355,-0.027344,-0.408203,0.944336,1.0666892215185446,-23.4336171292361,85.1471703462977,0.722312331199646,-0.15570582449436188,-0.13066938519477844,0.6610187292098999
f18fa8bf-33ac-4d86-a008-814929057197,06de69ea-30e8-4081-8e83-788a0374f8b7,1760443611565122505,1.207352,0.265121,-3.492355,-0.027344,-0.411621,0.940918,1.0551193684618905,-23.424379344867457,85.05361578688391,0.7228501439094543,-0.15568770468235016,-0.1305617392063141,0.660456120967865
f18fa8bf-33ac-4d86-a008-814929057197,06de69ea-30e8-4081-8e83-788a0374f8b7,1760443611576077505,1.081467,0.085831,-3.553391,-0.024414,-0.391602,0.940918,1.0443004687697857,-23.405884874528898,84.95279097269704,0.7234418392181396,-0.15562386810779572,-0.13038606941699982,0.6598577499389648
f18fa8bf-33ac-4d86-a008-814929057197,06de69ea-30e8-4081-8e83-788a0374f8b7,1760443611587031505,0.717163,0.389099,-2.882004,-0.027832,-0.408691,0.921875,1.0399284134574223,-23.403393906367487,84.91153342682318,0.7236775159835815,-0.155629962682724,-0.1303432434797287,0.6596062779426575
f18fa8bf-33ac-4d86-a008-814929057197,06de69ea-30e8-4081-8e83-788a0374f8b7,1760443611597985505,0.837326,0.448227,-2.637863,-0.038574,-0.410645,0.940918,1.0408503108001352,-23.396991539442887,84.85906520284823,0.7239885330200195,-0.15565460920333862,-0.1302291601896286,0.6592816710472107
f18fa8bf-33ac-4d86-a008-814929057197,06de69ea-30e8-4081-8e83-788a0374f8b7,1760443611608323505,0.534058,-0.038147,-2.576828,-0.038574,-0.413086,0.934082,1.043527872210995,-23.387981481486214,84.82683495640121,0.7241882681846619,-0.15564990043640137,-0.13011641800403595,0.6590855717658997
f18fa8bf-33ac-4d86-a008-814929057197,06de69ea-30e8-4081-8e83-788a0374f8b7,1760443611618660505,0.167847,-0.099182,-2.210617,-0.02002,-0.413086,0.945312,1.0431810207755108,-23.38499832387851,84.7894710055076,0.7244064807891846,-0.15567152202129364,-0.1300506293773651,0.6588536500930786
f18fa8bf-33ac-4d86-a008-814929057197,06de69ea-30e8-4081-8e83-788a0374f8b7,1760443611628997505,0.534058,0.022888,-1.787186,-0.035645,-0.424805,0.930176,1.0375912976426944,-23.38509492615837,84.74311716412902,0.7246664762496948,-0.15569259226322174,-0.1300235539674759,0.6585680842399597
f18fa8bf-33ac-4d86-a008-814929057197,06de69ea-30e8-4081-8e83-788a0374f8b7,1760443611637030505,0.045776,-0.282288,-1.844406,-0.03418,-0.409668,0.934082,1.0395715099289546,-23.39089462429331,84.72796942084327,0.7247484922409058,-0.15575772523880005,-0.13002391159534454,0.6584622859954834
f18fa8bf-33ac-4d86-a008-814929057197,06de69ea-30e8-4081-8e83-788a0374f8b7,1760443611645063505,0.230789,-0.22316,-0.928879,-0.030762,-0.41748,0.939453,1.046165216726148,-23.39374493601536,84.70959205923553,0.7248579859733582,-0.15583442151546478,-0.1299736648797989,0.6583335399627686
f18fa8bf-33ac-4d86-a008-814929057197,06de69ea-30e8-4081-8e83-788a0374f8b7,1760443611653096505,0.165939,-0.22316,-0.867844,-0.050781,-0.423828,0.945312,1.060604877259338,-23.39924069535545,84.690728248777,0.7249758243560791,-0.1559734046459198,-0.1298883557319641,0.6581876873970032
f18fa8bf-33ac-4d86-a008-814929057197,06de69ea-30e8-4081-8e83-788a0374f8b7,1760443611661129505,-0.137329,-0.282288,-0.440598,-0.041016,-0.416992,0.94043,1.0699772228541673,-23.400218908415457,84.67141003227974,0.7250961661338806,-0.15605528652668,-0.12980839610099792,0.6580514907836914
f18fa8bf-33ac-4d86-a008-814929057197,06de69ea-30e8-4081-8e83-788a0374f8b7,1760443611671892505,0.350952,-0.343323,0.047684,-0.035645,-0.433105,0.948242,1.0793731259634112,-23.40819541640839,84.65106039732333,0.7252136468887329,-0.15618258714675903,-0.12976720929145813,0.6578999161720276
f18fa8bf-33ac-4d86-a008-814929057197,06de69ea-30e8-4081-8e83-788a0374f8b7,1760443611682655505,0.411987,-0.587463,0.47493,-0.025391,-0.413574,0.941894,1.0885005936860737,-23.411579210632247,84.62244551903139,0.725383996963501,-0.15628871321678162,-0.12968993186950684,0.6577021479606628
f18fa8bf-33ac-4d86-a008-814929057197,06de69ea-30e8-4081-8e83-788a0374f8b7,1760443611693418505,0.593185,-0.890732,1.020432,-0.03418,-0.411133,0.948242,1.0932971384270354,-23.404759091216935,84.58610795354852,0.7256065011024475,-0.15631432831287384,-0.12957069277763367,0.6574740409851074
f18fa8bf-33ac-4d86-a008-814929057197,06de69ea-30e8-4081-8e83-788a0374f8b7,1760443611701345505,0.900269,-1.13678,1.695633,-0.018555,-0.414551,0.930664,1.0898936309146836,-23.399408603574752,84.58699127722502,0.7256042957305908,-0.15626004338264465,-0.1295626163482666,0.6574909687042236
f18fa8bf-33ac-4d86-a008-814929057197,06de69ea-30e8-4081-8e83-788a0374f8b7,1760443611709273505,0.717163,-0.831604,1.630783,-0.016113,-0.398926,0.946289,1.087860675917985,-23.399763645799162,84.63622986945221,0.725318968296051,-0.15619492530822754,-0.12964466214179993,0.6578050255775452
f18fa8bf-33ac-4d86-a008-814929057197,06de69ea-30e8-4081-8e83-788a0374f8b7,1760443611717201505,0.778198,-0.953674,1.508713,-0.016113,-0.413086,0.944824,1.083646895574249,-23.392046318645,84.64367776665613,0.7252811193466187,-0.1561136394739151,-0.1296369880437851,0.6578675508499146
f18fa8bf-33ac-4d86-a008-814929057197,06de69ea-30e8-4081-8e83-788a0374f8b7,1760443611725129505,0.167847,-0.770569,1.508713,-0.022461,-0.394531,0.926758,1.085259759857234,-23.389191672819614,84.66302515479991,0.7251754403114319,-0.15608300268650055,-0.12963667511940002,0.6579914093017578
f18fa8bf-33ac-4d86-a008-814929057197,06de69ea-30e8-4081-8e83-788a0374f8b7,1760443611735789505,-0.320435,-0.831604,1.142502,-0.026367,-0.402832,0.931641,1.085433886094811,-23.38827646281666,84.69739456425788,0.7249794006347656,-0.15603934228420258,-0.12967710196971893,0.6582098007202148
f18fa8bf-33ac-4d86-a008-814929057197,06de69ea-30e8-4081-8e83-788a0374f8b7,1760443611746449505,-0.383377,-1.199722,1.142502,-0.028809,-0.405762,0.94043,1.084829736557425,-23.39451047957077,84.71333708097143,0.7248793244361877,-0.15605713427066803,-0.12973859906196594,0.6583036184310913
f18fa8bf-33ac-4d86-a008-814929057197,06de69ea-30e8-4081-8e83-788a0374f8b7,1760443611757109505,-0.62561,-1.441956,1.573563,-0.02832,-0.405762,0.944336,1.0848002535997812,-23.395253031601868,84.70627974959406,0.7249189019203186,-0.15606963634490967,-0.12973345816135406,0.6582580804824829
f18fa8bf-33ac-4d86-a008-814929057197,06de69ea-30e8-4081-8e83-788a0374f8b7,1760443611767762505,-0.566483,-1.810074,1.939774,-0.030273,-0.395508,0.943848,1.0756965865953532,-23.39959365109579,84.65865119125073,0.7251766920089722,-0.1560986340045929,-0.12975122034549713,0.657963752746582
f18fa8bf-33ac-4d86-a008-814929057197,06de69ea-30e8-4081-8e83-788a0374f8b7,1760443611778418505,-0.259399,-2.113342,1.695633,-0.018066,-0.399902,0.945312,1.0647759134875228,-23.399875854589666,84.66844507968031,0.725107729434967,-0.15602661669254303,-0.12983529269695282,0.6580402255058289
f18fa8bf-33ac-4d86-a008-814929057197,06de69ea-30e8-4081-8e83-788a0374f8b7,1760443611789074505,-0.137329,-1.930237,1.756668,-0.007812,-0.405273,0.938965,1.053624957193343,-23.398404840033955,84.65984027595043,0.7251463532447815,-0.15596304833889008,-0.12988565862178802,0.6580028533935547
f18fa8bf-33ac-4d86-a008-814929057197,06de69ea-30e8-4081-8e83-788a0374f8b7,1760443611799747505,-0.015259,-1.441956,2.122879,-0.021484,-0.397949,0.950195,1.0508392747430115,-23.39149783163105,84.68035344976245,0.7250340580940247,-0.15588025748729706,-0.12989136576652527,0.658145010471344
f18fa8bf-33ac-4d86-a008-814929057197,06de69ea-30e8-4081-8e83-788a0374f8b7,1760443611810421505,0.656128,-0.953674,1.630783,-0.006836,-0.395508,0.944824,1.0479984161709819,-23.384501726521105,84.7404470072839,0.7246943712234497,-0.15575169026851654,-0.12995068728923798,0.6585378050804138
f18fa8bf-33ac-4d86-a008-814929057197,06de69ea-30e8-4081-8e83-788a0374f8b7,1760443611821095505,0.350952,-0.953674,1.390457,-0.014648,-0.39502,0.95166,1.0409397214782008,-23.375104665923324,84.74575025833461,0.7246676683425903,-0.15564589202404022,-0.12994830310344696,0.6585926413536072
f18fa8bf-33ac-4d86-a008-814929057197,06de69ea-30e8-4081-8e83-788a0374f8b7,1760443611829080505,-0.137329,-0.404358,1.630783,-0.023926,-0.396973,0.942383,1.046339097855023,-23.366978233941673,84.76194362067761,0.7245908975601196,-0.15560735762119293,-0.12988924980163574,0.6586978435516357
f18fa8bf-33ac-4d86-a008-814929057197,06de69ea-30e8-4081-8e83-788a0374f8b7,1760443611837066505,0.471115,-0.34523,1.451492,-0.013184,-0.400391,0.935059,1.049648080381834,-23.364102159990665,84.76610513063396,0.7245743274688721,-0.1556035429239273,-0.1298573762178421,0.6587232351303101
f18fa8bf-33ac-4d86-a008-814929057197,06de69ea-30e8-4081-8e83-788a0374f8b7,1760443611845052505,0.045776,-0.465393,1.695633,-0.031738,-0.415039,0.93457,1.0546224548911027,-23.36651676811045,84.76240204512435,0.724598228931427,-0.1556515395641327,-0.1298348307609558,0.6586900949478149
f18fa8bf-33ac-4d86-a008-814929057197,06de69ea-30e8-4081-8e83-788a0374f8b7,1760443611853038505,0.350952,-0.892639,1.508713,-0.02002,-0.400879,0.946289,1.0537338637110538,-23.359338895392195,84.72750292693108,0.7248067855834961,-0.15564072132110596,-0.12975162267684937,0.6584795713424683
f18fa8bf-33ac-4d86-a008-814929057197,06de69ea-30e8-4081-8e83-788a0374f8b7,1760443611863700505,0.228882,-1.13678,1.390457,-0.018555,-0.399414,0.949707,1.0484684228756378,-23.354822857829774,84.72373575595466,0.7248281240463257,-0.15558627247810364,-0.12975375354290009,0.65846848487854
f18fa8bf-33ac-4d86-a008-814929057197,06de69ea-30e8-4081-8e83-788a0374f8b7,1760443611874362505,0.959396,-1.504898,1.695633,-0.012207,-0.403809,0.946289,1.039615652331433,-23.345736317044913,84.77195398872432,0.72455233335495,-0.15542350709438324,-0.1298227310180664,0.6587967872619629
f18fa8bf-33ac-4d86-a008-814929057197,06de69ea-30e8-4081-8e83-788a0374f8b7,1760443611885024505,0.961304,-1.25885,1.390457,-0.022461,-0.405762,0.949219,1.0345065494612316,-23.33405634277097,84.72711748371829,0.7248188853263855,-0.1553713083267212,-0.1297268271446228,0.6585347056388855
f18fa8bf-33ac-4d86-a008-814929057197,06de69ea-30e8-4081-8e83-788a0374f8b7,1760443611895709505,0.776291,-1.199722,1.573563,-0.018555,-0.399414,0.947754,1.0347448650973678,-23.32445210376921,84.71921670295697,0.7248765826225281,-0.15532106161117554,-0.12965919077396393,0.6584964394569397
f18fa8bf-33ac-4d86-a008-814929057197,06de69ea-30e8-4081-8e83-788a0374f8b7,1760443611906395505,0.900269,-1.25885,1.508713,-0.019043,-0.410156,0.939453,1.0325732865594353,-23.317247467961714,84.77369848426451,0.7245699763298035,-0.1552015095949173,-0.12970516085624695,0.6588529348373413
f18fa8bf-33ac-4d86-a008-814929057197,06de69ea-30e8-4081-8e83-788a0374f8b7,1760443611917081505,0.473022,-0.770569,1.508713,-0.020996,-0.414551,0.933594,1.0275857080166533,-23.310481877371743,84.79615217683734,0.7244436740875244,-0.15510478615760803,-0.1297280341386795,0.6590100526809692
f18fa8bf-33ac-4d86-a008-814929057197,06de69ea-30e8-4081-8e83-788a0374f8b7,1760443611927736505,-0.017166,-0.833511,1.142502,-0.015137,-0.411621,0.936035,1.0327763118599467,-23.312407866560783,84.75777774449443,0.7246677875518799,-0.15519019961357117,-0.12965437769889832,0.6587579846382141
f18fa8bf-33ac-4d86-a008-814929057197,06de69ea-30e8-4081-8e83-788a0374f8b7,1760443611938392505,-0.442505,-0.404358,1.390457,-0.015625,-0.410156,0.930176,1.03731059412209,-23.319404212155533,84.73745669558055,0.7247809767723083,-0.1552833467721939,-0.12963855266571045,0.6586146354675293
f18fa8bf-33ac-4d86-a008-814929057197,06de69ea-30e8-4081-8e83-788a0374f8b7,1760443611949048505,-0.505447,-0.22316,1.756668,-0.03125,-0.409668,0.939453,1.0475170144069867,-23.32637469805421,84.70556546500593,0.7249670624732971,-0.15542201697826385,-0.12957097589969635,0.6583903431892395
f18fa8bf-33ac-4d86-a008-814929057197,06de69ea-30e8-4081-8e83-788a0374f8b7,1760443611957067505,-0.440598,-0.22316,2.183914,-0.027344,-0.400879,0.94043,1.0582088947671713,-23.33343818624901,84.70517671992538,0.7249725461006165,-0.15552842617034912,-0.12954355776309967,0.6583645343780518
f18fa8bf-33ac-4d86-a008-814929057197,06de69ea-30e8-4081-8e83-788a0374f8b7,1760443611965085505,-0.320435,0.205994,2.485275,-0.022461,-0.412109,0.954102,1.071375556462811,-23.33486970809837,84.71291243544536,0.7249411940574646,-0.15560434758663177,-0.12947902083396912,0.6583938598632812
f18fa8bf-33ac-4d86-a008-814929057197,06de69ea-30e8-4081-8e83-788a0374f8b7,1760443611973103505,0.411987,0.328064,2.916336,-0.024902,-0.41748,0.957519,1.088653929468829,-23.334534216353486,84.72554198031423,0.7248885631561279,-0.15568724274635315,-0.12938493490219116,0.658450722694397
f18fa8bf-33ac-4d86-a008-814929057197,06de69ea-30e8-4081-8e83-788a0374f8b7,1760443611981121505,0.900269,0.511169,2.855301,-0.038086,-0.420898,0.952148,1.1069261168223918,-23.332397302547946,84.73405508055363,0.7248629331588745,-0.15576916933059692,-0.1292685866355896,0.6584823727607727
f18fa8bf-33ac-4d86-a008-814929057197,06de69ea-30e8-4081-8e83-788a0374f8b7,1760443611991781505,1.205444,0.022888,2.550125,-0.020996,-0.412109,0.950195,1.1273370986932882,-23.32685807500352,84.73147228983673,0.7249076962471008,-0.15585444867610931,-0.12910398840904236,0.6584452390670776
f18fa8bf-33ac-4d86-a008-814929057197,06de69ea-30e8-4081-8e83-788a0374f8b7,1760443612002441505,1.569748,-0.097275,2.733231,-0.025391,-0.397949,0.953613,1.1406973449348499,-23.31532278420491,84.77863406617628,0.7246660590171814,-0.15580543875694275,-0.12901702523231506,0.6587397456169128
f18fa8bf-33ac-4d86-a008-814929057197,06de69ea-30e8-4081-8e83-788a0374f8b7,1760443612013101505,1.264572,-0.162125,2.855301,-0.025879,-0.404297,0.941406,1.1543735433707687,-23.301109871152537,84.80366001902904,0.724555253982544,-0.1557663530111313,-0.1288824826478958,0.6588972806930542
f18fa8bf-33ac-4d86-a008-814929057197,06de69ea-30e8-4081-8e83-788a0374f8b7,1760443612023735505,1.38855,-0.099182,2.485275,-0.015137,-0.410645,0.938965,1.1698355519012438,-23.27603524237199,84.76787061471026,0.7248095273971558,-0.1557374894618988,-0.12859123945236206,0.6586812734603882
f18fa8bf-33ac-4d86-a008-814929057197,06de69ea-30e8-4081-8e83-788a0374f8b7,1760443612034370505,1.327515,-0.343323,2.428055,-0.023926,-0.416504,0.936523,1.1751036103883876,-23.271111006284684,84.75623216741796,0.7248884439468384,-0.15574979782104492,-0.1285136640071869,0.6586066484451294
f18fa8bf-33ac-4d86-a008-814929057197,06de69ea-30e8-4081-8e83-788a0374f8b7,1760443612045005505,1.081467,-0.585556,1.695633,-0.018555,-0.404297,0.936523,1.1785688896880206,-23.262366689964605,84.75427481364174,0.7249144315719604,-0.15571679174900055,-0.12843859195709229,0.6586005687713623
f18fa8bf-33ac-4d86-a008-814929057197,06de69ea-30e8-4081-8e83-788a0374f8b7,1760443612053039505,0.717163,-0.587463,1.508713,-0.012695,-0.404297,0.94043,1.1851967269905137,-23.258608656999776,84.7494394469611,0.7249543070793152,-0.15573662519454956,-0.12836839258670807,0.6585656404495239
f18fa8bf-33ac-4d86-a008-814929057197,06de69ea-30e8-4081-8e83-788a0374f8b7,1760443612061073505,0.534058,-0.648499,1.695633,-0.030273,-0.411621,0.94043,1.1853253959279666,-23.253679980498354,84.73651508842224,0.7250348329544067,-0.1557207852602005,-0.1283215582370758,0.6584898233413696
f18fa8bf-33ac-4d86-a008-814929057197,06de69ea-30e8-4081-8e83-788a0374f8b7,1760443612069107505,0.289917,-0.404358,1.390457,-0.026367,-0.411621,0.935547,1.1890239374713683,-23.2545885311046,84.78981279142242,0.7247315049171448,-0.1556880623102188,-0.1283758282661438,0.6588208675384521
f18fa8bf-33ac-4d86-a008-814929057197,06de69ea-30e8-4081-8e83-788a0374f8b7,1760443612077141505,0.411987,-0.831604,1.756668,-0.027832,-0.408203,0.9375,1.1932267243530945,-23.254110889267697,84.82699264833944,0.7245230078697205,-0.15566757321357727,-0.12839700281620026,0.6590508222579956
f18fa8bf-33ac-4d86-a008-814929057197,06de69ea-30e8-4081-8e83-788a0374f8b7,1760443612087756505,0.289917,-0.282288,1.996994,-0.02832,-0.406738,0.94873,1.1944673914216555,-23.251451294044614,84.83351728869383,0.7244901657104492,-0.15565064549446106,-0.12838265299797058,0.6590937376022339
f18fa8bf-33ac-4d86-a008-814929057197,06de69ea-30e8-4081-8e83-788a0374f8b7,1760443612098371505,0.413895,-0.040054,1.756668,-0.01709,-0.408691,0.936523,1.2003824610455163,-23.24906250640334,84.85980261220995,0.7243485450744629,-0.15564018487930298,-0.12836715579032898,0.6592548489570618
f18fa8bf-33ac-4d86-a008-814929057197,06de69ea-30e8-4081-8e83-788a0374f8b7,1760443612108986505,0.535965,0.265121,1.878738,-0.004883,-0.404785,0.940918,1.2041491620212657,-23.248724261701938,84.86087841713008,0.7243469953536987,-0.1556585133075714,-0.12834285199642181,0.6592569947242737
f18fa8bf-33ac-4d86-a008-814929057197,06de69ea-30e8-4081-8e83-788a0374f8b7,1760443612119723505,0.047684,0.265121,1.996994,-0.019531,-0.41748,0.942383,1.2237168642390264,-23.253703597860394,84.79866511826016,0.7247205376625061,-0.15587204694747925,-0.12816333770751953,0.6588307619094849
f18fa8bf-33ac-4d86-a008-814929057197,06de69ea-30e8-4081-8e83-788a0374f8b7,1760443612130461505,0.045776,0.87738,1.996994,-0.017578,-0.415527,0.946777,1.2362585780757134,-23.25172780844162,84.77212398353889,0.7248895764350891,-0.15596136450767517,-0.1280364841222763,0.6586483120918274
f18fa8bf-33ac-4d86-a008-814929057197,06de69ea-30e8-4081-8e83-788a0374f8b7,1760443612141199505,0.349045,0.936508,1.508713,-0.028809,-0.401367,0.946777,1.251231417616314,-23.245925683323538,84.78973979898792,0.7248122096061707,-0.15599121153354645,-0.12793223559856415,0.658746600151062
f18fa8bf-33ac-4d86-a008-814929057197,06de69ea-30e8-4081-8e83-788a0374f8b7,1760443612151812505,1.022339,1.121521,0.902176,-0.018066,-0.411133,0.960449,1.2613565301103364,-23.237461125900435,84.79079721556141,0.7248278856277466,-0.15599490702152252,-0.12782073020935059,0.6587501764297485
f18fa8bf-33ac-4d86-a008-814929057197,06de69ea-30e8-4081-8e83-788a0374f8b7,1760443612162426505,1.38855,1.487732,-0.013351,-0.013672,-0.39209,0.947754,1.2740548009088841,-23.228509309322643,84.76625021505582,0.7249941825866699,-0.15603886544704437,-0.1276552677154541,0.6585888266563416
f18fa8bf-33ac-4d86-a008-814929057197,06de69ea-30e8-4081-8e83-788a0374f8b7,1760443612173040505,1.51062,1.670837,-0.013351,-0.014648,-0.408203,0.952148,1.284498641198822,-23.21312812695048,84.81749304965948,0.7247301936149597,-0.15594494342803955,-0.12757009267807007,0.6589180827140808
f18fa8bf-33ac-4d86-a008-814929057197,06de69ea-30e8-4081-8e83-788a0374f8b7,1760443612183676505,1.752853,1.485825,-0.745773,-0.020508,-0.403809,0.949707,1.3034076508945347,-23.18653230628834,84.83343202773719,0.7246922850608826,-0.15586847066879272,-0.12731847167015076,0.6590265035629272
f18fa8bf-33ac-4d86-a008-814929057197,06de69ea-30e8-4081-8e83-788a0374f8b7,1760443612194313505,1.998901,1.182556,-1.234055,-0.012207,-0.418457,0.944824,1.3086419263674458,-23.170424128814656,84.79455532685591,0.7249414324760437,-0.15584027767181396,-0.1271393895149231,0.6587936878204346
f18fa8bf-33ac-4d86-a008-814929057197,06de69ea-30e8-4081-8e83-788a0374f8b7,1760443612204950505,2.365112,1.060486,-1.234055,-0.030273,-0.399902,0.930176,1.3160365731654484,-23.15350105899,84.72940759760436,0.7253448367118835,-0.15584835410118103,-0.12690623104572296,0.658392608165741
f18fa8bf-33ac-4d86-a008-814929057197,06de69ea-30e8-4081-8e83-788a0374f8b7,1760443612212991505,2.609253,0.694275,-1.234055,-0.010742,-0.401855,0.94043,1.31719525021987,-23.138096371710343,84.68352152261826,0.7256286144256592,-0.155808687210083,-0.12674754858016968,0.658119797706604
f18fa8bf-33ac-4d86-a008-814929057197,06de69ea-30e8-4081-8e83-788a0374f8b7,1760443612221030505,2.426147,0.87738,-1.41716,-0.021484,-0.401367,0.93457,1.315546576416083,-23.11855050325893,84.63066102713967,0.7259542942047119,-0.1557343751192093,-0.1265733242034912,0.65781170129776
f18fa8bf-33ac-4d86-a008-814929057197,06de69ea-30e8-4081-8e83-788a0374f8b7,1760443612229069505,1.51062,0.816345,-1.41716,-0.037109,-0.400879,0.928223,1.320018012788256,-23.102230081864604,84.56473518898163,0.7263575792312622,-0.15572981536388397,-0.12636125087738037,0.6574082374572754
f18fa8bf-33ac-4d86-a008-814929057197,06de69ea-30e8-4081-8e83-788a0374f8b7,1760443612237108505,1.022339,0.816345,-1.234055,-0.037598,-0.393555,0.931641,1.328145923638443,-23.09210259070593,84.55676216369383,0.7264246940612793,-0.15572130680084229,-0.12624049186706543,0.6573593020439148
f18fa8bf-33ac-4d86-a008-814929057197,06de69ea-30e8-4081-8e83-788a0374f8b7,1760443612247743505,0.654221,1.119614,-1.356125,-0.03125,-0.404785,0.930176,1.3371282524012933,-23.08290683412682,84.53988648624892,0.7265426516532898,-0.1557333618402481,-0.1261075884103775,0.6572515964508057
f18fa8bf-33ac-4d86-a008-814929057197,06de69ea-30e8-4081-8e83-788a0374f8b7,1760443612258378505,0.717163,1.121521,-1.356125,-0.020508,-0.400879,0.952148,1.345391883758824,-23.078803527528386,84.49566660194226,0.7268103361129761,-0.15580348670482635,-0.12597142159938812,0.6569650173187256
f18fa8bf-33ac-4d86-a008-814929057197,06de69ea-30e8-4081-8e83-788a0374f8b7,1760443612269013505,0.837326,1.424789,-1.356125,-0.030762,-0.392578,0.953613,1.3529941745003005,-23.069152543965636,84.47593600574538,0.7269436120986938,-0.15580779314041138,-0.12584075331687927,0.6568415760993958
