section id,recording id,timestamp [ns],gyro x [deg/s],gyro y [deg/s],gyro z [deg/s],acceleration x [g],acceleration y [g],acceleration z [g],roll [deg],pitch [deg],yaw [deg],quaternion w,quaternion x,quaternion y,quaternion z
0210984a-415f-482e-9563-2b1034aa5764,39f0de63-6e96-42bf-9377-2259653f22df,1760000718680826055,0.736237,0.671387,0.902176,-0.003906,-0.562012,0.871094,-0.1255297517396028,-33.216760083591005,84.6987263176599,0.7080069780349731,-0.2105347216129303,-0.19332394003868103,0.6457758545875549
0210984a-415f-482e-9563-2b1034aa5764,39f0de63-6e96-42bf-9377-2259653f22df,1760000718690449055,1.041412,1.102448,1.573563,-0.001465,-0.558594,0.875488,-0.10553770055579646,-33.202732413122604,84.69919883268102,0.7080639600753784,-0.21055985987186432,-0.1931222826242447,0.6457655429840088
0210984a-415f-482e-9563-2b1034aa5764,39f0de63-6e96-42bf-9377-2259653f22df,1760000718700072055,1.649857,1.649857,2.122879,-0.016113,-0.553223,0.87793,-0.06699849157031523,-33.17982907908878,84.71183978872237,0.708099901676178,-0.2106141597032547,-0.19277836382389069,0.6458112597465515
0210984a-415f-482e-9563-2b1034aa5764,39f0de63-6e96-42bf-9377-2259653f22df,1760000718709695055,2.386093,1.710892,2.794266,-0.012695,-0.562012,0.881348,-0.024922858140177126,-33.15559992637486,84.73172682395597,0.7081031799316406,-0.21066813170909882,-0.1924183964729309,0.645897388458252
0210984a-415f-482e-9563-2b1034aa5764,39f0de63-6e96-42bf-9377-2259653f22df,1760000718719318055,2.506256,2.319336,3.465652,-0.016113,-0.549316,0.866211,0.028282336144542834,-33.1275463203824,84.77035693460147,0.7080262303352356,-0.2107299268245697,-0.19200251996517181,0.6460853219032288
0210984a-415f-482e-9563-2b1034aa5764,39f0de63-6e96-42bf-9377-2259653f22df,1760000718727433055,2.811432,2.746582,4.869461,-0.029785,-0.548828,0.859375,0.08603896411706058,-33.10296981688245,84.83005245960294,0.7078313231468201,-0.21080391108989716,-0.19161686301231384,0.6463892459869385
0210984a-415f-482e-9563-2b1034aa5764,39f0de63-6e96-42bf-9377-2259653f22df,1760000718735550055,2.567291,2.807617,6.151199,-0.024414,-0.549805,0.873535,0.1545125011042721,-33.07828923802318,84.86187234342412,0.7078112959861755,-0.21098469197750092,-0.19111314415931702,0.6465013027191162
0210984a-415f-482e-9563-2b1034aa5764,39f0de63-6e96-42bf-9377-2259653f22df,1760000718743667055,2.386093,2.87056,6.761551,-0.01123,-0.558594,0.852051,0.22637627725168546,-33.051396206942876,84.92094674454692,0.7076466679573059,-0.21112586557865143,-0.19062618911266327,0.6467791795730591
0210984a-415f-482e-9563-2b1034aa5764,39f0de63-6e96-42bf-9377-2259653f22df,1760000718751784055,2.20108,3.295898,7.371902,-0.020508,-0.557129,0.856934,0.296935289192037,-33.02878691314358,85.01775259771172,0.707258403301239,-0.21122397482395172,-0.19024112820625305,0.6472850441932678
0210984a-415f-482e-9563-2b1034aa5764,39f0de63-6e96-42bf-9377-2259653f22df,1760000718759901055,2.506256,3.601074,8.043289,-0.01709,-0.567383,0.862793,0.37770266938523156,-33.01132033504604,85.08232265226853,0.7070591449737549,-0.21146561205387115,-0.1897629201412201,0.647564172744751
0210984a-415f-482e-9563-2b1034aa5764,39f0de63-6e96-42bf-9377-2259653f22df,1760000718768018055,1.897812,3.664017,8.28743,-0.019043,-0.557617,0.871582,0.46304044768556596,-32.98924607369727,85.14600552098989,0.7068801522254944,-0.2117067575454712,-0.18922895193099976,0.6478369235992432
0210984a-415f-482e-9563-2b1034aa5764,39f0de63-6e96-42bf-9377-2259653f22df,1760000718777453055,1.712799,3.417969,8.714676,-0.019531,-0.555176,0.851562,0.5458598587108251,-32.96949267183932,85.22370425601324,0.7066128849983215,-0.21192540228366852,-0.188749760389328,0.6481967568397522
0210984a-415f-482e-9563-2b1034aa5764,39f0de63-6e96-42bf-9377-2259653f22df,1760000718786888055,1.712799,3.295898,8.653641,-0.010254,-0.555176,0.843262,0.6299237667890677,-32.95419791100639,85.31094847554324,0.7062849402427673,-0.212163507938385,-0.18830612301826477,0.6486051678657532
0210984a-415f-482e-9563-2b1034aa5764,39f0de63-6e96-42bf-9377-2259653f22df,1760000718796323055,1.771927,2.504349,8.653641,-0.033203,-0.566406,0.854492,0.7095920957995924,-32.94069417349822,85.40323608206641,0.7059172987937927,-0.21238015592098236,-0.18790942430496216,0.6490494012832642
0210984a-415f-482e-9563-2b1034aa5764,39f0de63-6e96-42bf-9377-2259653f22df,1760000718805758055,1.409531,1.710892,8.53157,-0.018555,-0.560547,0.858398,0.78795025737368,-32.92720376035609,85.47156155860964,0.7056825757026672,-0.21262936294078827,-0.1874767541885376,0.6493481397628784
0210984a-415f-482e-9563-2b1034aa5764,39f0de63-6e96-42bf-9377-2259653f22df,1760000718815193055,0.553131,1.342773,8.53157,-0.010254,-0.548828,0.861816,0.8485339153940801,-32.91586453312864,85.56898210877806,0.7052494883537292,-0.21274399757385254,-0.1872200220823288,0.6498549580574036
0210984a-415f-482e-9563-2b1034aa5764,39f0de63-6e96-42bf-9377-2259653f22df,1760000718824798055,0.919342,0.793457,7.799149,-0.004883,-0.567871,0.871582,0.9047119248667257,-32.9070879300254,85.72226916058028,0.7044869065284729,-0.21275866031646729,-0.18710900843143463,0.6507087349891663
0210984a-415f-482e-9563-2b1034aa5764,39f0de63-6e96-42bf-9377-2259653f22df,1760000718834403055,0.612259,0.246048,7.371902,0.006348,-0.561035,0.860352,0.9480690990382094,-32.89933807787998,85.77726533109404,0.7042589783668518,-0.21286775171756744,-0.18690039217472076,0.6509796380996704
0210984a-415f-482e-9563-2b1034aa5764,39f0de63-6e96-42bf-9377-2259653f22df,1760000718844008055,0.370026,-0.305176,6.578445,-0.004395,-0.547363,0.850586,0.9813651733025369,-32.897757476150765,85.8120059120595,0.7041186690330505,-0.21299061179161072,-0.18675130605697632,0.6511340141296387
0210984a-415f-482e-9563-2b1034aa5764,39f0de63-6e96-42bf-9377-2259653f22df,1760000718853613055,0.307083,-0.425339,5.968094,-0.002441,-0.54541,0.862793,1.006627084441205,-32.8950512827843,85.91560393085777,0.7035756707191467,-0.21294881403446198,-0.18677321076393127,0.6517281532287598
0210984a-415f-482e-9563-2b1034aa5764,39f0de63-6e96-42bf-9377-2259653f22df,1760000718863218055,-0.05722,-0.854492,4.808426,-0.005859,-0.555176,0.866211,1.0295472582256562,-32.891068909650265,85.99554034522183,0.7031652331352234,-0.21292461454868317,-0.18675827980041504,0.6521831154823303
0210984a-415f-482e-9563-2b1034aa5764,39f0de63-6e96-42bf-9377-2259653f22df,1760000718872813055,-0.120163,-0.730515,4.014969,0.010742,-0.554688,0.866211,1.0486728619030583,-32.888012110121814,86.03476344833096,0.7029784917831421,-0.2129509150981903,-0.18669632077217102,0.6523935198783875
0210984a-415f-482e-9563-2b1034aa5764,39f0de63-6e96-42bf-9377-2259653f22df,1760000718882408055,-0.240326,-1.586914,3.343582,0.005371,-0.535645,0.855469,1.0464748963510517,-32.88752990283411,86.04491943193007,0.7029179334640503,-0.21291890740394592,-0.186725914478302,0.6524607539176941
0210984a-415f-482e-9563-2b1034aa5764,39f0de63-6e96-42bf-9377-2259653f22df,1760000718892003055,0.123978,-1.279831,2.428055,-0.007324,-0.567383,0.871094,1.0431510187400876,-32.88675943566337,86.0643132452542,0.7028034329414368,-0.21286366879940033,-0.18677791953086853,0.6525872349739075
0210984a-415f-482e-9563-2b1034aa5764,39f0de63-6e96-42bf-9377-2259653f22df,1760000718901598055,-0.240326,-1.522064,1.512527,-0.009277,-0.563965,0.865723,1.0306939996993112,-32.89140488208308,86.04595995778428,0.7028794884681702,-0.21285100281238556,-0.18684683740139008,0.6524897217750549
0210984a-415f-482e-9563-2b1034aa5764,39f0de63-6e96-42bf-9377-2259653f22df,1760000718911193055,-0.118256,-1.831055,0.963211,-0.004883,-0.552734,0.86084,1.0134463439905428,-32.89127284932411,86.01777739129358,0.7030120491981506,-0.21279795467853546,-0.18689954280853271,0.6523491144180298
0210984a-415f-482e-9563-2b1034aa5764,39f0de63-6e96-42bf-9377-2259653f22df,1760000718919241055,-0.238419,-2.073288,0.352859,0.003418,-0.550293,0.861816,0.98735207852507,-32.89339541435399,86.03837999469518,0.7028484344482422,-0.21262872219085693,-0.18711000680923462,0.6525202393531799
0210984a-415f-482e-9563-2b1034aa5764,39f0de63-6e96-42bf-9377-2259653f22df,1760000718927289055,-0.301361,-1.953125,-0.074387,-0.003418,-0.549316,0.861816,0.9670826538851829,-32.89033056682665,86.03905969427835,0.7028168439865112,-0.21249347925186157,-0.18721804022789001,0.6525673270225525
0210984a-415f-482e-9563-2b1034aa5764,39f0de63-6e96-42bf-9377-2259653f22df,1760000718935337055,-0.240326,-1.831055,-0.806808,-0.007812,-0.557129,0.864258,0.9434071071897318,-32.887781970357636,85.99440269655291,0.703036904335022,-0.21241609752178192,-0.18726588785648346,0.6523416638374329
0210984a-415f-482e-9563-2b1034aa5764,39f0de63-6e96-42bf-9377-2259653f22df,1760000718943385055,0.247955,-1.342773,-0.867844,-0.002441,-0.548828,0.873535,0.9183470231688735,-32.876772290207725,85.93222759211488,0.7033692002296448,-0.21230779588222504,-0.18724146485328674,0.6520256996154785
0210984a-415f-482e-9563-2b1034aa5764,39f0de63-6e96-42bf-9377-2259653f22df,1760000718954116055,0.612259,-1.096725,-1.478195,-0.001465,-0.540527,0.884277,0.8915389139791052,-32.86069322875869,85.86478555803929,0.7037373781204224,-0.21216720342636108,-0.1871892213821411,0.6516890525817871
0210984a-415f-482e-9563-2b1034aa5764,39f0de63-6e96-42bf-9377-2259653f22df,1760000718964847055,1.466751,-0.91362,-1.356125,-0.000488,-0.546387,0.897949,0.8694678500920102,-32.84203132733407,85.80144964678225,0.7040943503379822,-0.21203097701072693,-0.18710094690322876,0.6513731479644775
0210984a-415f-482e-9563-2b1034aa5764,39f0de63-6e96-42bf-9377-2259653f22df,1760000718975578055,1.283646,-0.91362,-1.173019,-0.01416,-0.553711,0.87207,0.8528261242646948,-32.82773464884683,85.7703484231009,0.7042691707611084,-0.21189968287944794,-0.1870640367269516,0.651237428188324
0210984a-415f-482e-9563-2b1034aa5764,39f0de63-6e96-42bf-9377-2259653f22df,1760000718986151055,-0.181198,-1.462936,0.352859,-0.009766,-0.543945,0.878906,0.8403968371712861,-32.819047887459284,85.74823594129255,0.7043898701667786,-0.21181195974349976,-0.1870499551296234,0.651139497756958
0210984a-415f-482e-9563-2b1034aa5764,39f0de63-6e96-42bf-9377-2259653f22df,1760000718996725055,-0.669479,-1.462936,1.329422,-0.011719,-0.547852,0.877441,0.8264501902324628,-32.81643249231994,85.74591184115938,0.7043849229812622,-0.21172049641609192,-0.18711645901203156,0.6511554718017578
0210984a-415f-482e-9563-2b1034aa5764,39f0de63-6e96-42bf-9377-2259653f22df,1760000719007299055,-0.852585,-0.974655,2.244949,-0.009766,-0.556641,0.885742,0.824890862337905,-32.81704965837643,85.75231038954104,0.7043449282646179,-0.21170495450496674,-0.18714138865470886,0.6511966586112976
0210984a-415f-482e-9563-2b1034aa5764,39f0de63-6e96-42bf-9377-2259653f22df,1760000719015276055,-0.303268,-0.303268,3.221512,-0.018066,-0.560059,0.857422,0.8552245478682677,-32.820086150708775,85.82558503248293,0.703972578048706,-0.21177631616592407,-0.18710772693157196,0.6515856385231018
0210984a-415f-482e-9563-2b1034aa5764,39f0de63-6e96-42bf-9377-2259653f22df,1760000719023254055,-0.79155,0.368118,4.198074,-0.010742,-0.539551,0.85791,0.8771678044730503,-32.82110240102447,85.87919099472873,0.7037017345428467,-0.2118198126554489,-0.1870778352022171,0.6518725752830505
0210984a-415f-482e-9563-2b1034aa5764,39f0de63-6e96-42bf-9377-2259653f22df,1760000719031232055,-0.543594,0.8564,4.747391,-0.015625,-0.543457,0.858887,0.9128249015920167,-32.82313663593506,85.9093768851339,0.703584611415863,-0.21198584139347076,-0.18692633509635925,0.6519885063171387
0210984a-415f-482e-9563-2b1034aa5764,39f0de63-6e96-42bf-9377-2259653f22df,1760000719039210055,-0.911713,1.407623,5.235672,-0.017578,-0.553223,0.85498,0.9568019991706055,-32.83043428799385,85.9224052249097,0.7035693526268005,-0.2122594267129898,-0.18672217428684235,0.6519744396209717
0210984a-415f-482e-9563-2b1034aa5764,39f0de63-6e96-42bf-9377-2259653f22df,1760000719049879055,-1.277924,1.953125,5.540848,-0.007812,-0.549316,0.861816,1.00327414041171,-32.84036715182301,85.93287253427789,0.7035680413246155,-0.21256746351718903,-0.18651306629180908,0.6519353985786438
0210984a-415f-482e-9563-2b1034aa5764,39f0de63-6e96-42bf-9377-2259653f22df,1760000719060548055,-1.766205,2.624512,6.334305,-0.003418,-0.543457,0.872559,1.0588462872612572,-32.851704290778486,85.97189587769039,0.7034165263175964,-0.21288944780826569,-0.18630921840667725,0.6520520448684692
0210984a-415f-482e-9563-2b1034aa5764,39f0de63-6e96-42bf-9377-2259653f22df,1760000719071217055,-1.703262,2.87056,6.029129,0.000977,-0.552246,0.868652,1.116099039727491,-32.86478277928573,86.01186083149324,0.7032592296600342,-0.2132301777601242,-0.18610699474811554,0.6521680951118469
0210984a-415f-482e-9563-2b1034aa5764,39f0de63-6e96-42bf-9377-2259653f22df,1760000719081895055,-2.193451,3.723145,6.578445,-0.016113,-0.560547,0.858887,1.1791321697335782,-32.8884796453256,86.05410216688617,0.7030797004699707,-0.2136649787425995,-0.1859346181154251,0.6522685289382935
0210984a-415f-482e-9563-2b1034aa5764,39f0de63-6e96-42bf-9377-2259653f22df,1760000719092575055,-2.681732,3.90625,6.334305,-0.019043,-0.557129,0.853516,1.2488860368982697,-32.911797909801216,86.13903787342134,0.7026685476303101,-0.21406657993793488,-0.18579894304275513,0.652618408203125
0210984a-415f-482e-9563-2b1034aa5764,39f0de63-6e96-42bf-9377-2259653f22df,1760000719103255055,-2.744675,3.480911,6.27327,-0.020508,-0.556152,0.86084,1.3176756020597036,-32.93615756144822,86.19999747564,0.7023903727531433,-0.21450801193714142,-0.1856309473514557,0.6528207659721375
0210984a-415f-482e-9563-2b1034aa5764,39f0de63-6e96-42bf-9377-2259653f22df,1760000719113920055,-3.047943,3.479004,5.968094,-0.019531,-0.567871,0.852539,1.4435470670789348,-32.99053310708735,86.29751848368278,0.7019439339637756,-0.215398371219635,-0.1853547990322113,0.6530861258506775
0210984a-415f-482e-9563-2b1034aa5764,39f0de63-6e96-42bf-9377-2259653f22df,1760000719124583055,-3.293991,3.358841,6.090164,-0.029297,-0.564453,0.845703,1.5100149722956766,-33.02296377288229,86.38575230724345,0.701492190361023,-0.21583177149295807,-0.18530018627643585,0.6534438133239746
0210984a-415f-482e-9563-2b1034aa5764,39f0de63-6e96-42bf-9377-2259653f22df,1760000719135246055,-3.477097,2.931595,5.846024,-0.022461,-0.556152,0.851074,1.5685216289750394,-33.05195213644893,86.44320041032358,0.7012089490890503,-0.21624866127967834,-0.18521714210510254,0.6536335349082947
0210984a-415f-482e-9563-2b1034aa5764,39f0de63-6e96-42bf-9377-2259653f22df,1760000719143239055,-3.293991,2.626419,5.540848,-0.015625,-0.574707,0.851562,1.6200724158511721,-33.08503544521142,86.48924486118298,0.7009723782539368,-0.21666918694972992,-0.18517911434173584,0.653758704662323
0210984a-415f-482e-9563-2b1034aa5764,39f0de63-6e96-42bf-9377-2259653f22df,1760000719151231055,-3.170013,2.807617,5.174637,-0.014648,-0.570312,0.870117,1.6716382129384026,-33.116170362323984,86.52786876877676,0.700781524181366,-0.21708990633487701,-0.18511608242988586,0.6538415551185608
0210984a-415f-482e-9563-2b1034aa5764,39f0de63-6e96-42bf-9377-2259653f22df,1760000719159223055,-2.988815,2.504349,4.869461,-0.011719,-0.561523,0.863769,1.7229898253537121,-33.14019043500626,86.57116178187079,0.7005759477615356,-0.21745868027210236,-0.1850225329399109,0.6539657711982727
0210984a-415f-482e-9563-2b1034aa5764,39f0de63-6e96-42bf-9377-2259653f22df,1760000719167215055,-2.376556,2.384186,4.076004,-0.029297,-0.575684,0.861816,1.765372844705693,-33.16652296884373,86.59588278966781,0.7004578709602356,-0.21782025694847107,-0.18496212363243103,0.6539890170097351
0210984a-415f-482e-9563-2b1034aa5764,39f0de63-6e96-42bf-9377-2259653f22df,1760000719178139055,-2.071381,2.746582,3.465652,-0.024414,-0.566406,0.871094,1.8084014009676215,-33.18882910159536,86.59708121197507,0.7004820108413696,-0.21819904446601868,-0.1848299354314804,0.6538742184638977
0210984a-415f-482e-9563-2b1034aa5764,39f0de63-6e96-42bf-9377-2259653f22df,1760000719189063055,-1.888275,2.929688,3.160477,-0.022949,-0.574707,0.862305,1.8499483105182917,-33.207958394933556,86.64818876457441,0.7002243995666504,-0.21846960484981537,-0.1847836673259735,0.6540728211402893
0210984a-415f-482e-9563-2b1034aa5764,39f0de63-6e96-42bf-9377-2259653f22df,1760000719199987055,-1.585007,3.175735,2.48909,-0.015625,-0.562988,0.871582,1.8890098309581111,-33.22379693187593,86.70011625296384,0.6999636888504028,-0.21870476007461548,-0.18473543226718903,0.6542868614196777
0210984a-415f-482e-9563-2b1034aa5764,39f0de63-6e96-42bf-9377-2259653f22df,1760000719210386055,-1.70517,2.929688,2.000809,-0.030273,-0.569824,0.857422,1.9614414586610116,-33.25194748693093,86.69370515157465,0.7000685930252075,-0.21929892897605896,-0.1844431310892105,0.6540581583976746
0210984a-415f-482e-9563-2b1034aa5764,39f0de63-6e96-42bf-9377-2259653f22df,1760000719220786055,-1.583099,2.990723,1.390457,-0.020996,-0.556152,0.858398,1.9920677958039215,-33.26380260525498,86.70180242081963,0.7000513076782227,-0.21953241527080536,-0.18433994054794312,0.6540274620056152
0210984a-415f-482e-9563-2b1034aa5764,39f0de63-6e96-42bf-9377-2259653f22df,1760000719231186055,-1.462936,3.297806,0.535965,-0.03125,-0.55127,0.85498,2.027985057200059,-33.27422438263425,86.69887746053138,0.7001078724861145,-0.21980515122413635,-0.184175044298172,0.6539217233657837
0210984a-415f-482e-9563-2b1034aa5764,39f0de63-6e96-42bf-9377-2259653f22df,1760000719241865055,-1.951218,2.809525,-0.318527,-0.050293,-0.554199,0.864258,2.055751270828733,-33.291906766634476,86.67830486625961,0.7002395391464233,-0.22010360658168793,-0.18406793475151062,0.6537104249000549
0210984a-415f-482e-9563-2b1034aa5764,39f0de63-6e96-42bf-9377-2259653f22df,1760000719252543055,-1.70517,2.567291,-0.928879,-0.016602,-0.560547,0.848633,2.0870024804696703,-33.30182887573195,86.64155301891678,0.7004823088645935,-0.2204008549451828,-0.1838635355234146,0.6534076929092407
0210984a-415f-482e-9563-2b1034aa5764,39f0de63-6e96-42bf-9377-2259653f22df,1760000719263221055,-2.010345,2.746582,-1.53923,-0.045898,-0.54834,0.863281,2.102680481000245,-33.31722673052525,86.6325109981265,0.7005326151847839,-0.22059792280197144,-0.1838391125202179,0.6532940864562988
0210984a-415f-482e-9563-2b1034aa5764,39f0de63-6e96-42bf-9377-2259653f22df,1760000719271220055,-1.888275,2.441406,-2.149582,-0.052734,-0.566895,0.882324,2.1376271008117773,-33.342658225575626,86.56971936056208,0.7009028792381287,-0.2210516780614853,-0.18365105986595154,0.65279620885849
0210984a-415f-482e-9563-2b1034aa5764,39f0de63-6e96-42bf-9377-2259653f22df,1760000719279218055,-1.522064,2.258301,-2.759933,-0.041504,-0.552734,0.877441,2.1445303862263962,-33.34505658696008,86.53658323273174,0.7010985612869263,-0.22115860879421234,-0.18355871737003326,0.6525757908821106
0210984a-415f-482e-9563-2b1034aa5764,39f0de63-6e96-42bf-9377-2259653f22df,1760000719287216055,-0.79155,2.199173,-3.370285,-0.039062,-0.552734,0.89209,2.1448813713309485,-33.34176790494389,86.54762594014068,0.7010418772697449,-0.22112299501895905,-0.18355892598628998,0.6526487469673157
0210984a-415f-482e-9563-2b1034aa5764,39f0de63-6e96-42bf-9377-2259653f22df,1760000719295214055,-0.608444,2.016068,-3.18718,-0.03418,-0.54541,0.875488,2.1503199878307138,-33.33786728379514,86.5144072021337,0.701246440410614,-0.22118355333805084,-0.18343906104564667,0.6524420976638794
0210984a-415f-482e-9563-2b1034aa5764,39f0de63-6e96-42bf-9377-2259653f22df,1760000719305871055,-0.364304,2.565384,-3.675461,-0.043945,-0.54834,0.850586,2.1567206724264985,-33.34170483955898,86.45383188739359,0.701594889163971,-0.22134016454219818,-0.183305025100708,0.6520519256591797
0210984a-415f-482e-9563-2b1034aa5764,39f0de63-6e96-42bf-9377-2259653f22df,1760000719316528055,-1.340866,2.87056,-4.285812,-0.05957,-0.562012,0.847656,2.169901185766418,-33.35469625181071,86.37544183861311,0.7020395398139954,-0.22161918878555298,-0.1831475794315338,0.6515226364135742
0210984a-415f-482e-9563-2b1034aa5764,39f0de63-6e96-42bf-9377-2259653f22df,1760000719327185055,-1.951218,2.809525,-4.285812,-0.054687,-0.566895,0.823242,2.1832801118673784,-33.38339491341378,86.31917368017369,0.7023314237594604,-0.2219591587781906,-0.18312180042266846,0.6510993838310242
0210984a-415f-482e-9563-2b1034aa5764,39f0de63-6e96-42bf-9377-2259653f22df,1760000719335193055,-4.390717,2.319336,-4.163742,-0.084473,-0.565918,0.819824,2.2006162618937553,-33.42623490368317,86.26926043586252,0.7025689482688904,-0.22239720821380615,-0.18316508829593658,0.6506813168525696
0210984a-415f-482e-9563-2b1034aa5764,39f0de63-6e96-42bf-9377-2259653f22df,1760000719343201055,-5.674362,1.710892,-3.492355,-0.07959,-0.562988,0.831055,2.2227233508451048,-33.47864544321027,86.19191340806482,0.7029529809951782,-0.22296428680419922,-0.18318037688732147,0.6500678062438965
0210984a-415f-482e-9563-2b1034aa5764,39f0de63-6e96-42bf-9377-2259653f22df,1760000719351209055,-6.71196,1.344681,-2.943039,-0.072754,-0.585938,0.834961,2.242572932786575,-33.54188481106666,86.14651359112705,0.7031330466270447,-0.22353322803974152,-0.18333330750465393,0.6496343612670898
0210984a-415f-482e-9563-2b1034aa5764,39f0de63-6e96-42bf-9377-2259653f22df,1760000719359217055,-7.86972,0.12207,-2.332687,-0.076172,-0.588379,0.839844,2.256567394370732,-33.614616043321504,86.15124750773984,0.7030028700828552,-0.22404633462429047,-0.18367423117160797,0.6495020389556885
0210984a-415f-482e-9563-2b1034aa5764,39f0de63-6e96-42bf-9377-2259653f22df,1760000719369886055,-8.176804,-0.730515,-1.234055,-0.069824,-0.588867,0.852051,2.269425585447712,-33.695654235333,86.15005669144328,0.7028898596763611,-0.2246127426624298,-0.18405818939208984,0.6493198871612549
0210984a-415f-482e-9563-2b1034aa5764,39f0de63-6e96-42bf-9377-2259653f22df,1760000719380555055,-8.359909,-1.707077,-0.318527,-0.076172,-0.620605,0.849121,2.278188884701131,-33.780853454916915,86.17637361048808,0.7026069164276123,-0.22513677179813385,-0.1845451146364212,0.6493062376976013
0210984a-415f-482e-9563-2b1034aa5764,39f0de63-6e96-42bf-9377-2259653f22df,1760000719391224055,-7.993698,-2.744675,1.024246,-0.070801,-0.614746,0.860352,2.2872069727423976,-33.87069399331385,86.24468390509011,0.7020780444145203,-0.22562216222286224,-0.1851399838924408,0.6495403051376343
0210984a-415f-482e-9563-2b1034aa5764,39f0de63-6e96-42bf-9377-2259653f22df,1760000719401890055,-7.564545,-3.479004,2.244949,-0.081055,-0.618652,0.87207,2.301313274641813,-34.026303159679216,86.26888312824381,0.7016922235488892,-0.22660529613494873,-0.18599484860897064,0.6493703722953796
0210984a-415f-482e-9563-2b1034aa5764,39f0de63-6e96-42bf-9377-2259653f22df,1760000719412555055,-6.223679,-4.6978,3.038406,-0.068359,-0.608887,0.889648,2.2991040323361673,-34.08280349463101,86.2855960625615,0.7014950513839722,-0.2269076555967331,-0.18636585772037506,0.6493712067604065
0210984a-415f-482e-9563-2b1034aa5764,39f0de63-6e96-42bf-9377-2259653f22df,1760000719423220055,-4.94194,-4.81987,4.442215,-0.067871,-0.618652,0.889648,2.2997084969435857,-34.129330636353416,86.30550195800485,0.7013016939163208,-0.22716024518013,-0.1866687536239624,0.6494045853614807
0210984a-415f-482e-9563-2b1034aa5764,39f0de63-6e96-42bf-9377-2259653f22df,1760000719433970055,-1.520157,-5.308151,6.51741,-0.050781,-0.628906,0.892578,2.297257611680214,-34.164573058559355,86.3219691330534,0.7011425495147705,-0.2273327112197876,-0.18691878020763397,0.6494441032409668
0210984a-415f-482e-9563-2b1034aa5764,39f0de63-6e96-42bf-9377-2259653f22df,1760000719444720055,-0.238419,-5.186081,6.700516,-0.042969,-0.621582,0.894043,2.299744036429274,-34.17719574771741,86.37215952458997,0.7008399367332458,-0.22734126448631287,-0.1870756447315216,0.6497223973274231
0210984a-415f-482e-9563-2b1034aa5764,39f0de63-6e96-42bf-9377-2259653f22df,1760000719455470055,1.224518,-5.249023,6.761551,-0.029297,-0.617188,0.888672,2.2947912820436,-34.178792222731474,86.45123940352231,0.7003805041313171,-0.22719363868236542,-0.18727193772792816,0.6502127647399902
0210984a-415f-482e-9563-2b1034aa5764,39f0de63-6e96-42bf-9377-2259653f22df,1760000719466032055,2.872467,-4.943848,6.883621,-0.039062,-0.605469,0.882812,2.282504767183937,-34.14042048707739,86.62720755372331,0.6994282603263855,-0.2266044169664383,-0.18747462332248688,0.6513840556144714
0210984a-415f-482e-9563-2b1034aa5764,39f0de63-6e96-42bf-9377-2259653f22df,1760000719476592055,3.419876,-4.514694,6.700516,-0.035645,-0.601074,0.868164,2.278732269542172,-34.10993215469899,86.6728800909673,0.6992157101631165,-0.22632430493831635,-0.187412291765213,0.651727557182312
0210984a-415f-482e-9563-2b1034aa5764,39f0de63-6e96-42bf-9377-2259653f22df,1760000719487152055,4.522324,-4.209518,6.944656,-0.028809,-0.587891,0.859375,2.276512628428627,-34.06957633463481,86.7472180648313,0.6988595724105835,-0.22594672441482544,-0.1873399317264557,0.6522612571716309
0210984a-415f-482e-9563-2b1034aa5764,39f0de63-6e96-42bf-9377-2259653f22df,1760000719495182055,4.945755,-3.660202,5.540848,-0.015625,-0.572754,0.862305,2.2720611889966333,-34.028316066301336,86.80641789775295,0.6985871195793152,-0.22557586431503296,-0.18724572658538818,0.6527085304260254
0210984a-415f-482e-9563-2b1034aa5764,39f0de63-6e96-42bf-9377-2259653f22df,1760000719503210055,5.373001,-3.355026,5.113602,-0.02832,-0.57959,0.854492,2.265989155141346,-33.980756565092435,86.8440991175058,0.6984452605247498,-0.2251930981874466,-0.18708239495754242,0.6530393362045288
0210984a-415f-482e-9563-2b1034aa5764,39f0de63-6e96-42bf-9377-2259653f22df,1760000719511238055,5.250931,-3.355026,4.564285,-0.023926,-0.577637,0.864746,2.258531492008317,-33.93399053411266,86.85598854746057,0.6984465718269348,-0.22484934329986572,-0.18688122928142548,0.6532140970230103
0210984a-415f-482e-9563-2b1034aa5764,39f0de63-6e96-42bf-9377-2259653f22df,1760000719519266055,5.313873,-2.624512,3.892899,-0.000977,-0.55957,0.835449,2.245056302377783,-33.88668759396767,86.8599878473133,0.6984838843345642,-0.22448089718818665,-0.1866980940103531,0.6533533930778503
0210984a-415f-482e-9563-2b1034aa5764,39f0de63-6e96-42bf-9377-2259653f22df,1760000719529904055,5.496979,-2.681732,2.977371,-0.013184,-0.558105,0.85498,2.228494052205426,-33.83708679925299,86.86008057566359,0.6985423564910889,-0.22408731281757355,-0.18651282787322998,0.6534789800643921
0210984a-415f-482e-9563-2b1034aa5764,39f0de63-6e96-42bf-9377-2259653f22df,1760000719540542055,5.191803,-2.807617,2.305984,-0.004395,-0.5625,0.867676,2.209457886579279,-33.78377965532899,86.8695888690498,0.6985494494438171,-0.22364188730716705,-0.1863396018743515,0.6536734700202942
0210984a-415f-482e-9563-2b1034aa5764,39f0de63-6e96-42bf-9377-2259653f22df,1760000719551180055,4.76265,-2.561569,1.756668,0.004395,-0.55127,0.844727,2.186373485297499,-33.734223201390485,86.8728534542964,0.6985790133476257,-0.2232060581445694,-0.18620046973228455,0.6538305878639221
0210984a-415f-482e-9563-2b1034aa5764,39f0de63-6e96-42bf-9377-2259653f22df,1760000719561862055,4.640579,-2.561569,0.841141,-0.001953,-0.546387,0.862305,2.125585954914157,-33.63726231512739,86.90904139853025,0.698441207408905,-0.22221554815769196,-0.1860811859369278,0.654349148273468
0210984a-415f-482e-9563-2b1034aa5764,39f0de63-6e96-42bf-9377-2259653f22df,1760000719572544055,4.337311,-2.441406,-0.196457,-0.009766,-0.5625,0.850098,2.0903433046840982,-33.596556027644425,86.85628102668753,0.6987555027008057,-0.22185441851615906,-0.1859586536884308,0.6541709303855896
0210984a-415f-482e-9563-2b1034aa5764,39f0de63-6e96-42bf-9377-2259653f22df,1760000719583226055,4.457474,-1.890182,-0.989914,-0.020996,-0.551758,0.852539,2.0600308230474114,-33.55306311930434,86.80594900059194,0.6990687251091003,-0.2215004563331604,-0.18579502403736115,0.654002845287323
0210984a-415f-482e-9563-2b1034aa5764,39f0de63-6e96-42bf-9377-2259653f22df,1760000719591221055,3.297806,-1.585007,-2.637863,-0.032715,-0.552246,0.852051,2.022625073427791,-33.51143273275569,86.76042910422555,0.699339747428894,-0.2211093157529831,-0.18569506704807281,0.653873860836029
0210984a-415f-482e-9563-2b1034aa5764,39f0de63-6e96-42bf-9377-2259653f22df,1760000719599218055,2.811432,-1.342773,-3.370285,-0.022461,-0.530762,0.849121,1.9902536138181541,-33.47892301177179,86.7304384765328,0.6995145678520203,-0.2207767367362976,-0.18564724922180176,0.653812825679779
0210984a-415f-482e-9563-2b1034aa5764,39f0de63-6e96-42bf-9377-2259653f22df,1760000719607215055,2.506256,-1.522064,-3.675461,-0.02832,-0.532715,0.840332,1.9551652868777891,-33.44679031629065,86.66613683023623,0.699880063533783,-0.22048641741275787,-0.18555237352848053,0.6535465717315674
0210984a-415f-482e-9563-2b1034aa5764,39f0de63-6e96-42bf-9377-2259653f22df,1760000719615212055,1.714706,-1.401901,-3.675461,-0.022461,-0.54541,0.862793,1.9221702742002262,-33.41858074533496,86.59844284762141,0.7002614140510559,-0.22023716568946838,-0.18546117842197418,0.6532479524612427
0210984a-415f-482e-9563-2b1034aa5764,39f0de63-6e96-42bf-9377-2259653f22df,1760000719625864055,1.649857,-1.523972,-3.553391,-0.024414,-0.55127,0.849609,1.8908767320066826,-33.39990642240921,86.5348947402506,0.7006052732467651,-0.22004856169223785,-0.18542280793190002,0.6529536843299866
0210984a-415f-482e-9563-2b1034aa5764,39f0de63-6e96-42bf-9377-2259653f22df,1760000719636516055,1.163483,-1.647949,-2.943039,-0.04248,-0.555664,0.865234,1.8611833547463528,-33.38274785579339,86.48617759639944,0.7008644938468933,-0.21985426545143127,-0.18541209399700165,0.652743935585022
0210984a-415f-482e-9563-2b1034aa5764,39f0de63-6e96-42bf-9377-2259653f22df,1760000719647168055,1.104355,-1.768112,-2.759933,-0.039062,-0.54248,0.856445,1.8371221469016286,-33.3679038467263,86.46129770422412,0.700993001461029,-0.2196674793958664,-0.18542613089084625,0.6526648998260498
0210984a-415f-482e-9563-2b1034aa5764,39f0de63-6e96-42bf-9377-2259653f22df,1760000719657859055,1.104355,-2.378464,-2.088547,-0.03418,-0.555176,0.878906,1.7831060984875595,-33.329877685934676,86.49812079318144,0.7007616758346558,-0.21906960010528564,-0.1856081634759903,0.6530624032020569
0210984a-415f-482e-9563-2b1034aa5764,39f0de63-6e96-42bf-9377-2259653f22df,1760000719668552055,1.468658,-2.319336,-1.783371,-0.040039,-0.541504,0.870605,1.7594401067841803,-33.304145470577026,86.4590791664308,0.7009904384613037,-0.21884194016456604,-0.18553023040294647,0.652915358543396
0210984a-415f-482e-9563-2b1034aa5764,39f0de63-6e96-42bf-9377-2259653f22df,1760000719679245055,1.529694,-2.746582,-1.356125,-0.031738,-0.552734,0.868652,1.7350847469373356,-33.27942695710459,86.41862937859787,0.7012243270874023,-0.218618705868721,-0.18545983731746674,0.6527590155601501
0210984a-415f-482e-9563-2b1034aa5764,39f0de63-6e96-42bf-9377-2259653f22df,1760000719689890055,1.712799,-2.807617,-0.379562,-0.031738,-0.550781,0.868164,1.713141558848206,-33.25163697543673,86.38137586184303,0.7014492154121399,-0.21838533878326416,-0.1853632926940918,0.6526229381561279
0210984a-415f-482e-9563-2b1034aa5764,39f0de63-6e96-42bf-9377-2259653f22df,1760000719700536055,1.407623,-2.746582,-0.074387,-0.033691,-0.541504,0.835938,1.6907158846473243,-33.234761817407175,86.34661170896344,0.7016401886940002,-0.21821141242980957,-0.1853373497724533,0.6524831652641296
0210984a-415f-482e-9563-2b1034aa5764,39f0de63-6e96-42bf-9377-2259653f22df,1760000719711182055,0.795364,-2.439499,-0.135422,-0.037598,-0.529297,0.834961,1.6761105631353668,-33.22033379892799,86.3130884486579,0.7018324732780457,-0.2180948257446289,-0.18528005480766296,0.6523316502571106
0210984a-415f-482e-9563-2b1034aa5764,39f0de63-6e96-42bf-9377-2259653f22df,1760000719719195055,-0.055313,-2.866745,0.352859,-0.029785,-0.55957,0.84375,1.634457840897176,-33.21772907242849,86.28023442370991,0.7019566297531128,-0.217895045876503,-0.1854577213525772,0.6522143483161926
0210984a-415f-482e-9563-2b1034aa5764,39f0de63-6e96-42bf-9377-2259653f22df,1760000719727209055,-0.79155,-3.171921,0.169754,-0.029297,-0.552246,0.848144,1.611749370781977,-33.225822995614166,86.2871135238501,0.701866626739502,-0.21780383586883545,-0.1856563836336136,0.6522851586341858
0210984a-415f-482e-9563-2b1034aa5764,39f0de63-6e96-42bf-9377-2259653f22df,1760000719735223055,-1.522064,-3.295898,0.902176,-0.03125,-0.549316,0.851074,1.5897085722617417,-33.23880119772657,86.27410269321642,0.7018823623657227,-0.21777835488319397,-0.18584118783473969,0.652224063873291
0210984a-415f-482e-9563-2b1034aa5764,39f0de63-6e96-42bf-9377-2259653f22df,1760000719743237055,-1.829147,-3.660202,1.146317,-0.03125,-0.553223,0.857422,1.5665998895962587,-33.25058141528621,86.3172947552087,0.7015784382820129,-0.21764828264713287,-0.18613241612911224,0.6525113582611084
0210984a-415f-482e-9563-2b1034aa5764,39f0de63-6e96-42bf-9377-2259653f22df,1760000719751801055,-1.94931,-3.967285,1.329422,-0.022461,-0.558105,0.865234,1.5373295551181259,-33.2620778329325,86.36740360437764,0.7012253999710083,-0.2174699306488037,-0.18647275865077972,0.6528530716896057
0210984a-415f-482e-9563-2b1034aa5764,39f0de63-6e96-42bf-9377-2259653f22df,1760000719760365055,-1.399994,-3.967285,1.573563,-0.024414,-0.54834,0.889648,1.5089317802338669,-33.26572009554634,86.34666370903963,0.7012909650802612,-0.21736404299736023,-0.18662811815738678,0.6527734994888306
0210984a-415f-482e-9563-2b1034aa5764,39f0de63-6e96-42bf-9377-2259653f22df,1760000719768929055,-1.277924,-3.78418,1.390457,-0.019043,-0.555664,0.87793,1.4762238179097154,-33.26339174771529,86.32546561405955,0.7013624906539917,-0.21719813346862793,-0.18677473068237305,0.6527099013328552
0210984a-415f-482e-9563-2b1034aa5764,39f0de63-6e96-42bf-9377-2259653f22df,1760000719777493055,-0.974655,-3.416061,1.207352,-0.022949,-0.544922,0.884766,1.4474897812516427,-33.258238630555574,86.32209769660233,0.701343834400177,-0.21700863540172577,-0.1869146227836609,0.6527529358863831
0210984a-415f-482e-9563-2b1034aa5764,39f0de63-6e96-42bf-9377-2259653f22df,1760000719787382055,0.001907,-3.660202,0.902176,-0.015137,-0.553711,0.88623,1.4142520032251833,-33.24890527912224,86.28544239432978,0.701514720916748,-0.21682238578796387,-0.18699510395526886,0.6526081562042236
0210984a-415f-482e-9563-2b1034aa5764,39f0de63-6e96-42bf-9377-2259653f22df,1760000719797271055,0.185013,-3.04985,0.047684,-0.014648,-0.540527,0.875488,1.383322793715062,-33.23535189924709,86.24012314029277,0.7017460465431213,-0.21663780510425568,-0.18702098727226257,0.6524133086204529
0210984a-415f-482e-9563-2b1034aa5764,39f0de63-6e96-42bf-9377-2259653f22df,1760000719807160055,0.06485,-2.563477,-0.196457,-0.011719,-0.540039,0.854004,1.3537053707037494,-33.224248261044494,86.19308413262995,0.7019849419593811,-0.21647842228412628,-0.18704980611801147,0.6522009372711182
0210984a-415f-482e-9563-2b1034aa5764,39f0de63-6e96-42bf-9377-2259653f22df,1760000719815174055,0.431061,-2.010345,-0.745773,-0.021973,-0.552246,0.867676,1.3291649030511499,-33.21629177388197,86.2205159093642,0.701802670955658,-0.21624550223350525,-0.18720628321170807,0.652429461479187
0210984a-415f-482e-9563-2b1034aa5764,39f0de63-6e96-42bf-9377-2259653f22df,1760000719823188055,0.185013,-1.890182,-1.53923,-0.006836,-0.554688,0.861328,1.3007849756434793,-33.21066438191624,86.24988987842855,0.7015988826751709,-0.21600165963172913,-0.18740318715572357,0.6526727676391602
0210984a-415f-482e-9563-2b1034aa5764,39f0de63-6e96-42bf-9377-2259653f22df,1760000719831202055,0.06485,-1.522064,-1.844406,-0.013672,-0.537598,0.864258,1.2731561548916615,-33.204252972011055,86.20364549287751,0.7018283009529114,-0.21588093042373657,-0.18744845688343048,0.6524530649185181
0210984a-415f-482e-9563-2b1034aa5764,39f0de63-6e96-42bf-9377-2259653f22df,1760000719839216055,-0.606537,-1.342773,-2.149582,-0.021973,-0.536133,0.853516,1.2443088205127535,-33.20464646105094,86.15077427401044,0.7020813822746277,-0.21580561995506287,-0.1875278353691101,0.6521828174591064
0210984a-415f-482e-9563-2b1034aa5764,39f0de63-6e96-42bf-9377-2259653f22df,1760000719849990055,-1.277924,-0.976562,-2.149582,-0.024414,-0.555176,0.839355,1.2222578747824324,-33.21568329671692,86.1099278484526,0.702258288860321,-0.21581421792507172,-0.18764926493167877,0.6519545912742615
0210984a-415f-482e-9563-2b1034aa5764,39f0de63-6e96-42bf-9377-2259653f22df,1760000719860764055,-1.768112,-1.401901,-2.698898,-0.026855,-0.541504,0.853516,1.1955706700172284,-33.22640514715373,86.04652150146102,0.702556312084198,-0.21583165228366852,-0.187754824757576,0.6515971422195435
0210984a-415f-482e-9563-2b1034aa5764,39f0de63-6e96-42bf-9377-2259653f22df,1760000719871538055,-1.94931,-1.831055,-2.637863,-0.02832,-0.547852,0.858398,1.1672357316655335,-33.23877305869762,85.97551870082255,0.7028916478157043,-0.21586234867572784,-0.18786561489105225,0.6511933207511902
0210984a-415f-482e-9563-2b1034aa5764,39f0de63-6e96-42bf-9377-2259653f22df,1760000719879459055,-2.317429,-2.256393,-2.637863,-0.031738,-0.550781,0.842773,1.141206431303243,-33.25537422028145,85.90088771911674,0.7032435536384583,-0.21593816578388214,-0.18797962367534637,0.6507551670074463
0210984a-415f-482e-9563-2b1034aa5764,39f0de63-6e96-42bf-9377-2259653f22df,1760000719887380055,-3.047943,-2.502441,-2.271652,-0.016113,-0.547363,0.856445,1.1170394678345097,-33.27485226377912,85.88792798419168,0.7032429575920105,-0.21594110131263733,-0.18821482360363007,0.6506868004798889
0210984a-415f-482e-9563-2b1034aa5764,39f0de63-6e96-42bf-9377-2259653f22df,1760000719895301055,-2.744675,-2.378464,-2.332687,-0.020996,-0.559082,0.866211,1.0879517286994593,-33.29467970470209,85.88292635365174,0.7031883597373962,-0.21590517461299896,-0.18849718570709229,0.6506760120391846
0210984a-415f-482e-9563-2b1034aa5764,39f0de63-6e96-42bf-9377-2259653f22df,1760000719913898055,-2.742767,-2.624512,-2.149582,-0.037598,-0.547363,0.856934,1.0294255689695757,-33.33540560159372,85.83003233023821,0.703319787979126,-0.2159087210893631,-0.1889892816543579,0.6503899097442627
0210984a-415f-482e-9563-2b1034aa5764,39f0de63-6e96-42bf-9377-2259653f22df,1760000719924574055,-2.86293,-2.378464,-2.271652,-0.022949,-0.550293,0.856445,1.0011235672751688,-33.35749805880567,85.8417654987146,0.7031670808792114,-0.21586361527442932,-0.1893111914396286,0.6504763960838318
0210984a-415f-482e-9563-2b1034aa5764,39f0de63-6e96-42bf-9377-2259653f22df,1760000719935250055,-3.416061,-2.866745,-1.905441,-0.025391,-0.554199,0.849121,0.9710773423655291,-33.3850205515209,85.79120406337138,0.7033551931381226,-0.2159447968006134,-0.18955738842487335,0.6501742601394653
0210984a-415f-482e-9563-2b1034aa5764,39f0de63-6e96-42bf-9377-2259653f22df,1760000719943230055,-3.965378,-2.439499,-1.905441,-0.03125,-0.560547,0.852539,0.9453041465647043,-33.4171106612222,85.74131918670271,0.7035380601882935,-0.2160772681236267,-0.1898045837879181,0.649860143661499
0210984a-415f-482e-9563-2b1034aa5764,39f0de63-6e96-42bf-9377-2259653f22df,1760000719951211055,-4.63295,-2.561569,-2.149582,-0.029785,-0.567871,0.82959,0.9191545122826711,-33.4523638297963,85.70031942282073,0.7036639451980591,-0.2162124514579773,-0.19008874893188477,0.6495957374572754
0210984a-415f-482e-9563-2b1034aa5764,39f0de63-6e96-42bf-9377-2259653f22df,1760000719959192055,-5.001068,-2.746582,-1.783371,-0.039551,-0.570801,0.834961,0.894702705712338,-33.497748436046,85.67532349835543,0.7036834359169006,-0.21639283001422882,-0.1904502809047699,0.6494086384773254
0210984a-415f-482e-9563-2b1034aa5764,39f0de63-6e96-42bf-9377-2259653f22df,1760000719967173055,-5.186081,-2.866745,-1.478195,-0.033203,-0.563965,0.848633,0.8729713000188589,-33.547166594217025,85.65723755793537,0.7036607265472412,-0.21660196781158447,-0.1908309906721115,0.6492516398429871
0210984a-415f-482e-9563-2b1034aa5764,39f0de63-6e96-42bf-9377-2259653f22df,1760000719977864055,-5.552292,-2.68364,-0.806808,-0.024902,-0.554688,0.843262,0.8500176860624412,-33.59350824559614,85.63465995649028,0.7036666870117188,-0.2167929708957672,-0.19119305908679962,0.6490747928619385
0210984a-415f-482e-9563-2b1034aa5764,39f0de63-6e96-42bf-9377-2259653f22df,1760000719988555055,-5.613327,-2.622604,-0.379562,-0.035645,-0.571289,0.849121,0.8303841104095459,-33.64477055866534,85.62785654675886,0.7035796642303467,-0.2170066237449646,-0.19159246981143951,0.648979902267456
0210984a-415f-482e-9563-2b1034aa5764,39f0de63-6e96-42bf-9377-2259653f22df,1760000719999246055,-5.735397,-3.110886,0.047684,-0.032227,-0.565918,0.845215,0.8109837175910598,-33.69626837945413,85.6398175409308,0.7033860683441162,-0.2171916365623474,-0.1920272558927536,0.6489992737770081
0210984a-415f-482e-9563-2b1034aa5764,39f0de63-6e96-42bf-9377-2259653f22df,1760000720009898055,-5.613327,-3.843307,0.535965,-0.019043,-0.583008,0.854492,0.7734469633770498,-33.80204787936948,85.60237481617546,0.703342616558075,-0.21768879890441895,-0.1927882581949234,0.6486538648605347
0210984a-415f-482e-9563-2b1034aa5764,39f0de63-6e96-42bf-9377-2259653f22df,1760000720020550055,-5.430222,-3.782272,0.597,-0.027344,-0.583984,0.859863,0.7496776073130683,-33.85499101496665,85.62774100293906,0.7030623555183411,-0.2178352177143097,-0.193283349275589,0.6487610936164856
0210984a-415f-482e-9563-2b1034aa5764,39f0de63-6e96-42bf-9377-2259653f22df,1760000720031202055,-5.672455,-3.967285,1.207352,-0.021973,-0.582031,0.857422,0.7244421165620845,-33.91133438380265,85.61773933944654,0.7029733061790466,-0.2180536985397339,-0.19373945891857147,0.6486480236053467
0210984a-415f-482e-9563-2b1034aa5764,39f0de63-6e96-42bf-9377-2259653f22df,1760000720041904055,-5.247116,-4.575729,2.305984,-0.008789,-0.577148,0.871582,0.6946631793221836,-33.96253666140495,85.60729608056587,0.7028881311416626,-0.21821586787700653,-0.19419324398040771,0.6485499143600464
0210984a-415f-482e-9563-2b1034aa5764,39f0de63-6e96-42bf-9377-2259653f22df,1760000720052606055,-5.367279,-4.272461,2.48909,-0.010254,-0.593262,0.871094,0.6657028018462108,-34.009458930515656,85.61847032697868,0.702689528465271,-0.2183198481798172,-0.19465875625610352,0.6485904455184937
0210984a-415f-482e-9563-2b1034aa5764,39f0de63-6e96-42bf-9377-2259653f22df,1760000720063308055,-5.186081,-4.026413,2.48909,0.000488,-0.59375,0.86084,0.6466111247001328,-34.05816519846006,85.63618090615736,0.702467143535614,-0.21847936511039734,-0.1950863003730774,0.6486490368843079
0210984a-415f-482e-9563-2b1034aa5764,39f0de63-6e96-42bf-9377-2259653f22df,1760000720071284055,-4.94194,-3.416061,2.672195,0.00293,-0.589355,0.847656,0.6017892786496546,-34.153544420912404,85.65518255851038,0.7021070122718811,-0.21877607703208923,-0.1959391087293625,0.6486815214157104
0210984a-415f-482e-9563-2b1034aa5764,39f0de63-6e96-42bf-9377-2259653f22df,1760000720079262055,-4.63295,-3.843307,2.855301,-0.003418,-0.603027,0.848633,0.5839800247695038,-34.198197083381,85.67525814937295,0.7018802165985107,-0.21891367435455322,-0.19634020328521729,0.648759126663208
0210984a-415f-482e-9563-2b1034aa5764,39f0de63-6e96-42bf-9377-2259653f22df,1760000720087240055,-4.390717,-3.90625,2.733231,0.004395,-0.574707,0.849609,0.562813913720798,-34.23646806946667,85.7035909823001,0.7016125321388245,-0.21897898614406586,-0.19674137234687805,0.6489049196243286
0210984a-415f-482e-9563-2b1034aa5764,39f0de63-6e96-42bf-9377-2259653f22df,1760000720095218055,-4.024506,-4.146576,3.038406,-0.001953,-0.587402,0.858398,0.5405592175397681,-34.27455702345493,85.7217121314877,0.7014009356498718,-0.2190544158220291,-0.19712863862514496,0.6489904522895813
0210984a-415f-482e-9563-2b1034aa5764,39f0de63-6e96-42bf-9377-2259653f22df,1760000720105868055,-3.658295,-4.089355,2.977371,-0.002441,-0.585449,0.852539,0.5195796398258664,-34.3087483110344,85.73256821597488,0.701239824295044,-0.21912506222724915,-0.19747205078601837,0.6490380167961121
0210984a-415f-482e-9563-2b1034aa5764,39f0de63-6e96-42bf-9377-2259653f22df,1760000720116518055,-3.599167,-4.087448,3.221512,0.016113,-0.583008,0.851562,0.495484255855575,-34.34179115628964,85.8112502996389,0.7006909251213074,-0.21905440092086792,-0.19795764982700348,0.6495065689086914
0210984a-415f-482e-9563-2b1034aa5764,39f0de63-6e96-42bf-9377-2259653f22df,1760000720127168055,-3.110886,-4.087448,3.282547,0.005371,-0.596191,0.853027,0.4732939028530678,-34.374904594382194,85.86654955252865,0.7002773284912109,-0.21903488039970398,-0.1983872652053833,0.6498280763626099
0210984a-415f-482e-9563-2b1034aa5764,39f0de63-6e96-42bf-9377-2259653f22df,1760000720135190055,-3.599167,-4.514694,3.587723,0.009766,-0.583984,0.848633,0.446236728690087,-34.40559673089503,85.87174846318361,0.7001436948776245,-0.2190595120191574,-0.19873705506324768,0.6498569846153259
0210984a-415f-482e-9563-2b1034aa5764,39f0de63-6e96-42bf-9377-2259653f22df,1760000720143212055,-3.599167,-4.575729,3.343582,0.017578,-0.594238,0.844238,0.41939253588616726,-34.43703024748961,85.86747710491204,0.7000625729560852,-0.21910633146762848,-0.19907160103321075,0.649826169013977
0210984a-415f-482e-9563-2b1034aa5764,39f0de63-6e96-42bf-9377-2259653f22df,1760000720151234055,-3.658295,-4.089355,2.794266,0.01416,-0.59082,0.851074,0.38804277507083657,-34.473349774506836,85.86791381782724,0.6999375820159912,-0.21914920210838318,-0.1994703859090805,0.6498240828514099
0210984a-415f-482e-9563-2b1034aa5764,39f0de63-6e96-42bf-9377-2259653f22df,1760000720159256055,-3.965378,-4.148483,3.038406,0.007324,-0.591309,0.835449,0.3571965350886526,-34.51161228042094,85.87962419133719,0.6997456550598145,-0.21918708086013794,-0.1998986303806305,0.6498864889144897
0210984a-415f-482e-9563-2b1034aa5764,39f0de63-6e96-42bf-9377-2259653f22df,1760000720169919055,-4.087448,-4.514694,2.855301,0.039062,-0.605469,0.826172,0.326869298045054,-34.55364303678488,85.87912334677469,0.699616551399231,-0.21927213668823242,-0.20032168924808502,0.6498665809631348
0210984a-415f-482e-9563-2b1034aa5764,39f0de63-6e96-42bf-9377-2259653f22df,1760000720180582055,-4.575729,-4.636765,2.550125,0.021484,-0.59668,0.842285,0.2844488265002013,-34.60525774418025,85.87110459190313,0.6994905471801758,-0.21936021745204926,-0.20085853338241577,0.649806797504425
0210984a-415f-482e-9563-2b1034aa5764,39f0de63-6e96-42bf-9377-2259653f22df,1760000720191245055,-4.758835,-4.514694,2.183914,0.020508,-0.59668,0.839355,0.2422536338433322,-34.65158638283397,85.93431876538352,0.6989704370498657,-0.21929219365119934,-0.20150019228458405,0.6501907110214233
0210984a-415f-482e-9563-2b1034aa5764,39f0de63-6e96-42bf-9377-2259653f22df,1760000720199274055,-4.94194,-3.721237,1.634598,0.041992,-0.602539,0.841309,0.2011430347397936,-34.70003262230939,85.9756043477462,0.6985720992088318,-0.21928125619888306,-0.20210517942905426,0.6504347324371338
0210984a-415f-482e-9563-2b1034aa5764,39f0de63-6e96-42bf-9377-2259653f22df,1760000720207303055,-4.695892,-3.658295,1.390457,0.035645,-0.59668,0.845703,0.1591260854503848,-34.75133849237301,85.97123592048719,0.6984254121780396,-0.21936291456222534,-0.2026444524526596,0.650397002696991
0210984a-415f-482e-9563-2b1034aa5764,39f0de63-6e96-42bf-9377-2259653f22df,1760000720215332055,-4.087448,-2.561569,0.780106,0.021973,-0.598633,0.84668,0.11866414006337284,-34.79673842552929,85.9226156691523,0.69854336977005,-0.21949592232704163,-0.20305581390857697,0.6500970721244812
0210984a-415f-482e-9563-2b1034aa5764,39f0de63-6e96-42bf-9377-2259653f22df,1760000720223361055,-3.231049,-2.441406,0.352859,0.040527,-0.598145,0.850586,0.08669917627805555,-34.83360716052555,85.88092950329222,0.6986528635025024,-0.2196131944656372,-0.2033800631761551,0.649838387966156
0210984a-415f-482e-9563-2b1034aa5764,39f0de63-6e96-42bf-9377-2259653f22df,1760000720233978055,-2.559662,-2.010345,-0.440598,0.033203,-0.592773,0.848633,0.046632654336607585,-34.863676482550666,85.85327746131242,0.6986810564994812,-0.21961838006973267,-0.2037419229745865,0.6496930122375488
0210984a-415f-482e-9563-2b1034aa5764,39f0de63-6e96-42bf-9377-2259653f22df,1760000720244595055,-2.500534,-1.585007,-0.440598,0.03125,-0.603516,0.854004,0.00985257659033568,-34.8890648631052,85.80064765836919,0.6988653540611267,-0.21965831518173218,-0.2040092647075653,0.6493973731994629
0210984a-415f-482e-9563-2b1034aa5764,39f0de63-6e96-42bf-9377-2259653f22df,1760000720255212055,-2.317429,-1.523972,-0.867844,0.035156,-0.591797,0.848633,-0.023954978256527037,-34.912295398489455,85.74287174783855,0.699087917804718,-0.21971139311790466,-0.20423632860183716,0.6490684151649475
0210984a-415f-482e-9563-2b1034aa5764,39f0de63-6e96-42bf-9377-2259653f22df,1760000720263200055,-2.008438,-1.218796,-1.41716,0.016113,-0.586914,0.851074,-0.08347206384825055,-34.95158725931102,85.70352767495599,0.6991289854049683,-0.21968433260917664,-0.20474645495414734,0.6488725543022156
0210984a-415f-482e-9563-2b1034aa5764,39f0de63-6e96-42bf-9377-2259653f22df,1760000720271187055,-1.951218,-0.303268,-1.661301,0.028809,-0.591797,0.842285,-0.10486396145041314,-34.96855927293792,85.65191537508622,0.6993502378463745,-0.21975907683372498,-0.20487405359745026,0.6485685110092163
0210984a-415f-482e-9563-2b1034aa5764,39f0de63-6e96-42bf-9377-2259653f22df,1760000720279174055,-1.520157,-0.120163,-1.53923,0.024902,-0.599609,0.850586,-0.12386201052343554,-34.97913969031524,85.66018728117683,0.6992490291595459,-0.21970134973526,-0.20506569743156433,0.6486366391181946
0210984a-415f-482e-9563-2b1034aa5764,39f0de63-6e96-42bf-9377-2259653f22df,1760000720287161055,-0.852585,-0.425339,-1.53923,0.017578,-0.587402,0.857422,-0.14782004712519697,-34.983972918319225,85.64598076111346,0.6992772221565247,-0.2196206897497177,-0.20521199703216553,0.6485872864723206
0210984a-415f-482e-9563-2b1034aa5764,39f0de63-6e96-42bf-9377-2259653f22df,1760000720297892055,-0.240326,-0.305176,-1.844406,0.01416,-0.585449,0.865723,-0.1698582065810646,-34.98097435645527,85.58995456583882,0.6995605826377869,-0.21957801282405853,-0.20522218942642212,0.6482928395271301
0210984a-415f-482e-9563-2b1034aa5764,39f0de63-6e96-42bf-9377-2259653f22df,1760000720308623055,-0.606537,0.431061,-1.844406,0.020996,-0.584473,0.84375,-0.18487385123214733,-34.98572135754539,85.55275579413657,0.6997349262237549,-0.21958869695663452,-0.20526941120624542,0.6480861306190491
0210984a-415f-482e-9563-2b1034aa5764,39f0de63-6e96-42bf-9377-2259653f22df,1760000720319354055,-0.669479,0.8564,-1.783371,0.009766,-0.585449,0.830566,-0.19506080695642036,-34.99155154031715,85.52090791328646,0.6998854875564575,-0.21962378919124603,-0.20530351996421814,0.6479008197784424
0210984a-415f-482e-9563-2b1034aa5764,39f0de63-6e96-42bf-9377-2259653f22df,1760000720329981055,-1.216888,0.854492,-1.53923,0.003906,-0.577637,0.821289,-0.19973044066037338,-34.99870862525193,85.49544696643409,0.7000072002410889,-0.21968677639961243,-0.20532365143299103,0.6477415561676025
0210984a-415f-482e-9563-2b1034aa5764,39f0de63-6e96-42bf-9377-2259653f22df,1760000720340610055,-2.008438,0.551224,-1.478195,0.00293,-0.583496,0.824707,-0.1994861846328192,-35.00909386278813,85.47778098705531,0.7000873684883118,-0.21978332102298737,-0.20534691214561462,0.6476147770881653
0210984a-415f-482e-9563-2b1034aa5764,39f0de63-6e96-42bf-9377-2259653f22df,1760000720351239055,-2.010345,0.488281,-1.234055,0.010254,-0.570312,0.815918,-0.2039709393496461,-35.02752715990742,85.46002620469702,0.7001439332962036,-0.21990251541137695,-0.20544429123401642,0.6474823355674744
0210984a-415f-482e-9563-2b1034aa5764,39f0de63-6e96-42bf-9377-2259653f22df,1760000720359221055,-2.559662,1.159668,-1.661301,-0.003906,-0.588379,0.82373,-0.20370512004986074,-35.07005564738003,85.44011242533458,0.7001743912696838,-0.220199853181839,-0.2056443989276886,0.6472848057746887
0210984a-415f-482e-9563-2b1034aa5764,39f0de63-6e96-42bf-9377-2259653f22df,1760000720367204055,-2.622604,1.039505,-1.53923,0.0,-0.577637,0.821777,-0.2019650836245971,-35.09389363115266,85.37675193505268,0.7004889845848083,-0.22046920657157898,-0.20564638078212738,0.6468520164489746
0210984a-415f-482e-9563-2b1034aa5764,39f0de63-6e96-42bf-9377-2259653f22df,1760000720375187055,-3.231049,0.854492,-1.234055,0.00293,-0.581543,0.822754,-0.20529256213544364,-35.12184946604127,85.3578765703488,0.7005351781845093,-0.2206553816795349,-0.20578798651695251,0.6466934680938721
0210984a-415f-482e-9563-2b1034aa5764,39f0de63-6e96-42bf-9377-2259653f22df,1760000720383170055,-3.293991,1.039505,-1.111984,-0.000488,-0.589844,0.833984,-0.20241522751812438,-35.152444656891575,85.34712927222319,0.7005414366722107,-0.22087815403938293,-0.20592212677001953,0.6465679407119751
0210984a-415f-482e-9563-2b1034aa5764,39f0de63-6e96-42bf-9377-2259653f22df,1760000720393852055,-3.839493,1.527786,-1.722336,0.010254,-0.580566,0.845215,-0.20081093194576966,-35.181204826278424,85.31599425334458,0.7006639242172241,-0.22111919522285461,-0.20601432025432587,0.6463233828544617
0210984a-415f-482e-9563-2b1034aa5764,39f0de63-6e96-42bf-9377-2259653f22df,1760000720404534055,-3.782272,1.527786,-1.844406,0.000488,-0.583984,0.843262,-0.20066694635488855,-35.20765389826923,85.26691314980583,0.7008893489837646,-0.2213701754808426,-0.20606763660907745,0.6459759473800659
0210984a-415f-482e-9563-2b1034aa5764,39f0de63-6e96-42bf-9377-2259653f22df,1760000720415216055,-3.536224,1.525879,-2.027512,-0.005371,-0.580566,0.842285,-0.19516387276084152,-35.23261278983038,85.20107486327674,0.7012215256690979,-0.2216724008321762,-0.2060471773147583,0.6455182433128357
0210984a-415f-482e-9563-2b1034aa5764,39f0de63-6e96-42bf-9377-2259653f22df,1760000720423205055,-3.782272,1.893997,-2.332687,0.004883,-0.584961,0.841309,-0.19536473218179637,-35.26324759680663,85.16802671772076,0.7013474106788635,-0.22191838920116425,-0.20615677535533905,0.6452618837356567
0210984a-415f-482e-9563-2b1034aa5764,39f0de63-6e96-42bf-9377-2259653f22df,1760000720431194055,-3.538132,1.710892,-2.698898,0.004883,-0.581543,0.834961,-0.19772554285483385,-35.291665049364134,85.12340713808423,0.7015387415885925,-0.2221595048904419,-0.206244558095932,0.6449428200721741
0210984a-415f-482e-9563-2b1034aa5764,39f0de63-6e96-42bf-9377-2259653f22df,1760000720439183055,-3.536224,1.647949,-2.882004,0.003418,-0.581055,0.84375,-0.19926986573671315,-35.31813832915722,85.06122253107392,0.701833963394165,-0.22242501378059387,-0.20628215372562408,0.6445179581642151
0210984a-415f-482e-9563-2b1034aa5764,39f0de63-6e96-42bf-9377-2259653f22df,1760000720447172055,-3.71933,1.407623,-3.065109,-0.003906,-0.577637,0.844727,-0.2029447204582283,-35.340679258775694,85.0496836045562,0.701848030090332,-0.22256332635879517,-0.20640887320041656,0.6444143056869507
0210984a-415f-482e-9563-2b1034aa5764,39f0de63-6e96-42bf-9377-2259653f22df,1760000720457867055,-3.477097,0.97847,-2.698898,-0.016602,-0.585449,0.850586,-0.20348560528507856,-35.364609077798235,85.06084101404113,0.7017373442649841,-0.22268687188625336,-0.20656827092170715,0.6444411277770996
0210984a-415f-482e-9563-2b1034aa5764,39f0de63-6e96-42bf-9377-2259653f22df,1760000720468562055,-3.168106,0.917435,-2.882004,-0.011719,-0.581055,0.82959,-0.2071255254037613,-35.388926651767655,85.03044490254938,0.7018539309501648,-0.22287027537822723,-0.20666803419589996,0.6442188024520874
0210984a-415f-482e-9563-2b1034aa5764,39f0de63-6e96-42bf-9377-2259653f22df,1760000720479257055,-3.170013,0.793457,-2.698898,-0.010742,-0.58252,0.848633,-0.21508497821120276,-35.41280328741029,85.00968738496631,0.7019093036651611,-0.2230094075202942,-0.20681044459342957,0.6440645456314087
0210984a-415f-482e-9563-2b1034aa5764,39f0de63-6e96-42bf-9377-2259653f22df,1760000720489912055,-3.599167,0.673294,-2.332687,-0.010742,-0.587402,0.854004,-0.21675233983887762,-35.43548688504655,85.01514476626197,0.7018309831619263,-0.2231292724609375,-0.20695860683918,0.6440607905387878
0210984a-415f-482e-9563-2b1034aa5764,39f0de63-6e96-42bf-9377-2259653f22df,1760000720500568055,-3.780365,0.610352,-2.882004,0.000977,-0.57959,0.84082,-0.22030179239909353,-35.461513117559335,84.98536601777882,0.701940655708313,-0.22332271933555603,-0.20706839859485626,0.6438388824462891
0210984a-415f-482e-9563-2b1034aa5764,39f0de63-6e96-42bf-9377-2259653f22df,1760000720511224055,-3.782272,0.246048,-2.454758,-0.000488,-0.592773,0.856445,-0.23123040203030565,-35.485791213365815,84.93424586460027,0.7021601796150208,-0.22350263595581055,-0.20717187225818634,0.643503725528717
0210984a-415f-482e-9563-2b1034aa5764,39f0de63-6e96-42bf-9377-2259653f22df,1760000720519235055,-3.414154,0.488281,-2.454758,0.0,-0.58252,0.837402,-0.24936692103943173,-35.531757112749276,84.84428434056606,0.7025415301322937,-0.22384561598300934,-0.20736506581306458,0.6429058313369751
0210984a-415f-482e-9563-2b1034aa5764,39f0de63-6e96-42bf-9377-2259653f22df,1760000720527245055,-3.477097,0.246048,-2.759933,-0.00293,-0.575195,0.855957,-0.2535683370660816,-35.54991522634877,84.82378484457514,0.7026129961013794,-0.22397062182426453,-0.20745247602462769,0.6427559852600098
0210984a-415f-482e-9563-2b1034aa5764,39f0de63-6e96-42bf-9377-2259653f22df,1760000720535255055,-3.59726,0.488281,-2.454758,-0.006836,-0.585449,0.852051,-0.25656421534578416,-35.570095665977384,84.76527434256506,0.7028957009315491,-0.22418366372585297,-0.2074694186449051,0.6423670649528503
0210984a-415f-482e-9563-2b1034aa5764,39f0de63-6e96-42bf-9377-2259653f22df,1760000720543265055,-3.536224,0.305176,-2.149582,-0.01416,-0.587891,0.841309,-0.2558614028377144,-35.59224362961083,84.73975984633843,0.7029960751533508,-0.2243698537349701,-0.20753911137580872,0.6421696543693542
0210984a-415f-482e-9563-2b1034aa5764,39f0de63-6e96-42bf-9377-2259653f22df,1760000720553917055,-3.170013,0.0,-1.905441,-0.008301,-0.571289,0.827148,-0.2620512247738408,-35.61411536944198,84.76345453060556,0.702808678150177,-0.22442656755447388,-0.20774586498737335,0.642288088798523
0210984a-415f-482e-9563-2b1034aa5764,39f0de63-6e96-42bf-9377-2259653f22df,1760000720564569055,-3.599167,-0.303268,-1.356125,-0.01709,-0.571777,0.830078,-0.26378633691668574,-35.63867291417495,84.73480551367186,0.7029173374176025,-0.22461961209774017,-0.207837775349617,0.6420719623565674
0210984a-415f-482e-9563-2b1034aa5764,39f0de63-6e96-42bf-9377-2259653f22df,1760000720575221055,-4.087448,-0.242233,-0.989914,-0.012695,-0.587402,0.815918,-0.2632703226978631,-35.6725255635033,84.6989813630759,0.7030516862869263,-0.22489546239376068,-0.20795367658138275,0.6417906880378723
0210984a-415f-482e-9563-2b1034aa5764,39f0de63-6e96-42bf-9377-2259653f22df,1760000720585872055,-4.327774,-0.730515,-0.684738,-0.018066,-0.577637,0.84375,-0.2671354140096824,-35.702060952146226,84.65945172002401,0.70320725440979,-0.22512704133987427,-0.20806488394737244,0.6415029764175415
0210984a-415f-482e-9563-2b1034aa5764,39f0de63-6e96-42bf-9377-2259653f22df,1760000720596524055,-4.634857,-1.464844,-0.074387,-0.018066,-0.594238,0.831543,-0.2693142587653347,-35.73339991038544,84.63721057370184,0.703265368938446,-0.2253478318452835,-0.20820966362953186,0.6413147449493408
0210984a-415f-482e-9563-2b1034aa5764,39f0de63-6e96-42bf-9377-2259653f22df,1760000720607176055,-4.94194,-1.279831,0.108719,-0.010254,-0.57666,0.831543,-0.2692236352942815,-35.76875137509831,84.62464401001483,0.703265368938446,-0.22558844089508057,-0.20838187634944916,0.6411741971969604
0210984a-415f-482e-9563-2b1034aa5764,39f0de63-6e96-42bf-9377-2259653f22df,1760000720617889055,-4.94194,-1.096725,0.47493,-0.005859,-0.582031,0.836426,-0.27558159822419037,-35.845072813297534,84.58816312681294,0.7033054232597351,-0.22608831524848938,-0.20877520740032196,0.6408262252807617
0210984a-415f-482e-9563-2b1034aa5764,39f0de63-6e96-42bf-9377-2259653f22df,1760000720628605055,-5.123138,-0.854492,0.658035,-0.015137,-0.580566,0.828613,-0.2722996007434041,-35.8859800020489,84.63196670473548,0.7029845714569092,-0.2262781858444214,-0.20906993746757507,0.6410151124000549
0210984a-415f-482e-9563-2b1034aa5764,39f0de63-6e96-42bf-9377-2259653f22df,1760000720639321055,-5.247116,-1.03569,0.902176,0.006836,-0.591309,0.825684,-0.2753394378091891,-35.93604379340603,84.62761663664841,0.7029030919075012,-0.22657667100429535,-0.2093595415353775,0.6409044861793518
0210984a-415f-482e-9563-2b1034aa5764,39f0de63-6e96-42bf-9377-2259653f22df,1760000720647291055,-6.345749,-0.730515,1.512527,0.0,-0.598633,0.825195,-0.2716913829610778,-35.98908534352553,84.64523757410755,0.7027048468589783,-0.22689060866832733,-0.20966818928718567,0.6409099698066711
0210984a-415f-482e-9563-2b1034aa5764,39f0de63-6e96-42bf-9377-2259653f22df,1760000720655262055,-6.101608,-0.730515,1.573563,0.006348,-0.600098,0.811523,-0.2652252357575461,-36.042574228103085,84.70117983389419,0.7022963762283325,-0.22715270519256592,-0.21003809571266174,0.6411436796188354
0210984a-415f-482e-9563-2b1034aa5764,39f0de63-6e96-42bf-9377-2259653f22df,1760000720663233055,-6.160736,-0.545502,1.817703,0.009766,-0.61084,0.820801,-0.26489634189433153,-36.100795885206665,84.68446138055833,0.7022734880447388,-0.22754251956939697,-0.21032807230949402,0.6409354209899902
0210984a-415f-482e-9563-2b1034aa5764,39f0de63-6e96-42bf-9377-2259653f22df,1760000720671204055,-6.465912,-0.545502,1.756668,0.018555,-0.612793,0.818359,-0.26605898458272687,-36.16077036159941,84.6600034572307,0.7022873759269714,-0.22794899344444275,-0.2106214165687561,0.6406794190406799
0210984a-415f-482e-9563-2b1034aa5764,39f0de63-6e96-42bf-9377-2259653f22df,1760000720681901055,-6.649017,0.0,1.939774,0.003418,-0.616211,0.820312,-0.2631628083211763,-36.21923506919834,84.6424224951781,0.7022730708122253,-0.22835630178451538,-0.21089494228363037,0.6404600739479065
0210984a-415f-482e-9563-2b1034aa5764,39f0de63-6e96-42bf-9377-2259653f22df,1760000720692598055,-7.137299,-0.240326,2.183914,0.015137,-0.618164,0.82959,-0.2524313063565181,-36.28448712577885,84.63637761743374,0.7021948099136353,-0.2288278043270111,-0.211181178689003,0.6402832865715027
0210984a-415f-482e-9563-2b1034aa5764,39f0de63-6e96-42bf-9377-2259653f22df,1760000720703295055,-7.200241,0.368118,2.122879,0.009766,-0.623535,0.819824,-0.2437156883310158,-36.351712698929575,84.64173298377038,0.7020449638366699,-0.2292790561914444,-0.211513489484787,0.6401764750480652
0210984a-415f-482e-9563-2b1034aa5764,39f0de63-6e96-42bf-9377-2259653f22df,1760000720713937055,-7.320404,0.12207,2.244949,0.015137,-0.628418,0.818359,-0.2188679921544578,-36.49773456218528,84.6959211504282,0.7014921307563782,-0.2302129864692688,-0.21228455007076263,0.6401921510696411
0210984a-415f-482e-9563-2b1034aa5764,39f0de63-6e96-42bf-9377-2259653f22df,1760000720724577055,-6.952286,0.734329,2.428055,0.023438,-0.62207,0.82373,-0.2046835527044415,-36.562115996249354,84.79658522432695,0.7008250951766968,-0.23049995303153992,-0.21275945007801056,0.6406615972518921
0210984a-415f-482e-9563-2b1034aa5764,39f0de63-6e96-42bf-9377-2259653f22df,1760000720735217055,-6.771088,1.159668,2.122879,0.004395,-0.633789,0.830566,-0.18455507248923156,-36.630249369064494,84.77709777626858,0.7008329033851624,-0.2310657799243927,-0.21297746896743774,0.6403767466545105
0210984a-415f-482e-9563-2b1034aa5764,39f0de63-6e96-42bf-9377-2259653f22df,1760000720743205055,-6.101608,2.077103,1.573563,0.014648,-0.645996,0.820312,-0.15772813878046124,-36.69383070933296,84.74327890405226,0.7009422779083252,-0.23166777193546295,-0.21309992671012878,0.6399986743927002
0210984a-415f-482e-9563-2b1034aa5764,39f0de63-6e96-42bf-9377-2259653f22df,1760000720751195055,-6.040573,2.016068,1.512527,0.008301,-0.637695,0.820312,-0.13556945492550046,-36.758037860410006,84.76484128578925,0.7007322311401367,-0.23214438557624817,-0.21336629986763,0.6399672627449036
0210984a-415f-482e-9563-2b1034aa5764,39f0de63-6e96-42bf-9377-2259653f22df,1760000720759185055,-5.794525,2.441406,1.207352,0.009766,-0.626953,0.821289,-0.11308938567533613,-36.818501440662175,84.78433317475128,0.7005419135093689,-0.2326035499572754,-0.21360577642917633,0.6399289965629578
0210984a-415f-482e-9563-2b1034aa5764,39f0de63-6e96-42bf-9377-2259653f22df,1760000720767175055,-5.613327,2.321243,1.024246,0.020996,-0.643066,0.827148,-0.08867748199857564,-36.873482713498525,84.78809473432747,0.7004541754722595,-0.23306913673877716,-0.2137710005044937,0.6398004293441772
0210984a-415f-482e-9563-2b1034aa5764,39f0de63-6e96-42bf-9377-2259653f22df,1760000720777864055,-5.550385,2.624512,0.780106,0.013672,-0.645996,0.82959,-0.07431687753954701,-36.930999359948736,84.79671738536791,0.7003152966499329,-0.2334849089384079,-0.2140217274427414,0.6397170424461365
0210984a-415f-482e-9563-2b1034aa5764,39f0de63-6e96-42bf-9377-2259653f22df,1760000720788553055,-4.817963,2.990723,0.291824,0.010254,-0.659668,0.82666,-0.053212126850683925,-36.983338643388336,84.81217154412691,0.7001613974571228,-0.23389379680156708,-0.21421633660793304,0.6396709680557251
0210984a-415f-482e-9563-2b1034aa5764,39f0de63-6e96-42bf-9377-2259653f22df,1760000720799242055,-3.902435,3.295898,-0.379562,0.007813,-0.651367,0.835938,-0.03175855767421521,-37.034803110514716,84.83084481870951,0.6999919414520264,-0.23429308831691742,-0.21441061794757843,0.6396452784538269
0210984a-415f-482e-9563-2b1034aa5764,39f0de63-6e96-42bf-9377-2259653f22df,1760000720809912055,-3.231049,3.295898,-0.867844,0.008301,-0.649414,0.826172,0.013511927261843125,-37.10646627573293,84.77224414830525,0.7002567648887634,-0.23509320616722107,-0.2144138216972351,0.6390604376792908
0210984a-415f-482e-9563-2b1034aa5764,39f0de63-6e96-42bf-9377-2259653f22df,1760000720820583055,-3.110886,3.358841,-1.234055,0.012207,-0.650391,0.833496,0.028122619437262974,-37.1378754447615,84.79369673011401,0.7001000642776489,-0.23532642424106598,-0.21454377472400665,0.6391026973724365
0210984a-415f-482e-9563-2b1034aa5764,39f0de63-6e96-42bf-9377-2259653f22df,1760000720831254055,-1.70517,3.601074,-1.600266,0.006348,-0.645508,0.833496,0.04356849810477885,-37.15886305930892,84.78673844765376,0.7001247406005859,-0.2355537861585617,-0.21455217897891998,0.6389890909194946
0210984a-415f-482e-9563-2b1034aa5764,39f0de63-6e96-42bf-9377-2259653f22df,1760000720839244055,-1.031876,3.175735,-2.210617,0.000488,-0.615234,0.833008,0.05846007774767435,-37.17191576473723,84.73231782897588,0.7004292011260986,-0.23581841588020325,-0.21442203223705292,0.6386013627052307
0210984a-415f-482e-9563-2b1034aa5764,39f0de63-6e96-42bf-9377-2259653f22df,1760000720847234055,-0.7267,3.175735,-2.149582,0.000488,-0.634277,0.819824,0.07386861825964501,-37.17883624223456,84.69488921744392,0.7006523609161377,-0.23601657152175903,-0.2142893522977829,0.6383278369903564
0210984a-415f-482e-9563-2b1034aa5764,39f0de63-6e96-42bf-9377-2259653f22df,1760000720855224055,-0.543594,3.541946,-2.576828,-0.011719,-0.647461,0.82666,0.0837999267872268,-37.18658346015825,84.6532744659705,0.7008867859840393,-0.23619703948497772,-0.21418604254722595,0.6380383372306824
0210984a-415f-482e-9563-2b1034aa5764,39f0de63-6e96-42bf-9377-2259653f22df,1760000720863214055,-0.055313,4.030228,-3.126144,-0.005859,-0.623047,0.823242,0.10188094138670478,-37.19615532857911,84.6111198638114,0.7011355757713318,-0.2364349663257599,-0.2140418142080307,0.6377252340316772
0210984a-415f-482e-9563-2b1034aa5764,39f0de63-6e96-42bf-9377-2259653f22df,1760000720873875055,-0.181198,4.091263,-3.18718,0.000488,-0.621582,0.820312,0.11952044929761521,-37.1975504758788,84.57702789717688,0.7013553380966187,-0.23660530149936676,-0.21387127041816711,0.6374775767326355
0210984a-415f-482e-9563-2b1034aa5764,39f0de63-6e96-42bf-9377-2259653f22df,1760000720884536055,-0.608444,4.152298,-3.18718,-0.004883,-0.616699,0.815918,0.13888304668890397,-37.20001597280424,84.54489032891149,0.701565146446228,-0.2367880493402481,-0.2137000858783722,0.6372361779212952
0210984a-415f-482e-9563-2b1034aa5764,39f0de63-6e96-42bf-9377-2259653f22df,1760000720895197055,-0.543594,3.664017,-3.18718,-0.016602,-0.62207,0.821289,0.1591493060198448,-37.203869423926726,84.51258027695287,0.7017746567726135,-0.236984521150589,-0.21353064477443695,0.6369892358779907
0210984a-415f-482e-9563-2b1034aa5764,39f0de63-6e96-42bf-9377-2259653f22df,1760000720905863055,-0.303268,3.175735,-2.943039,-0.020996,-0.627441,0.80957,0.19566982069728153,-37.21448006661699,84.41844290915357,0.7023438811302185,-0.23742765188217163,-0.21317104995250702,0.6363168954849243
0210984a-415f-482e-9563-2b1034aa5764,39f0de63-6e96-42bf-9377-2259653f22df,1760000720916532055,-0.545502,2.567291,-2.637863,-0.027344,-0.615723,0.811523,0.20969917401654392,-37.22016845909583,84.42932677516933,0.7022978663444519,-0.23752011358737946,-0.21313925087451935,0.6363438963890076
0210984a-415f-482e-9563-2b1034aa5764,39f0de63-6e96-42bf-9377-2259653f22df,1760000720927201055,-0.545502,1.831055,-2.515793,-0.017578,-0.603027,0.818848,0.2168119283681658,-37.22593204865313,84.42524202904683,0.7023219466209412,-0.23760250210762024,-0.213119238615036,0.6362932324409485
0210984a-415f-482e-9563-2b1034aa5764,39f0de63-6e96-42bf-9377-2259653f22df,1760000720935212055,-1.033783,0.671387,-1.050949,-0.006348,-0.620605,0.808594,0.2257205293845398,-37.23601530514478,84.39774370793121,0.7024704813957214,-0.23776482045650482,-0.21306365728378296,0.6360872387886047
0210984a-415f-482e-9563-2b1034aa5764,39f0de63-6e96-42bf-9377-2259653f22df,1760000720943223055,-0.911713,0.183105,-0.318527,-0.01123,-0.623047,0.805664,0.23169358898550554,-37.2420200364868,84.38623663301864,0.7025331258773804,-0.23785614967346191,-0.21303653717041016,0.6359929442405701
0210984a-415f-482e-9563-2b1034aa5764,39f0de63-6e96-42bf-9377-2259653f22df,1760000720951234055,-1.277924,-0.366211,-0.013351,-0.02832,-0.611328,0.819336,0.23801376301920224,-37.241761921893385,84.38161849043743,0.7025710344314575,-0.23789823055267334,-0.2129867672920227,0.6359519958496094
0210984a-415f-482e-9563-2b1034aa5764,39f0de63-6e96-42bf-9377-2259653f22df,1760000720959245055,-1.399994,-0.366211,0.535965,-0.01709,-0.630859,0.806641,0.2433320119399014,-37.24600334727702,84.36794243109921,0.7026481032371521,-0.23797912895679474,-0.21294933557510376,0.635849118232727
0210984a-415f-482e-9563-2b1034aa5764,39f0de63-6e96-42bf-9377-2259653f22df,1760000720969960055,-1.70517,-0.854492,1.085281,-0.007812,-0.62793,0.81543,0.24540546739477748,-37.26374408020946,84.35612933103336,0.7026810646057129,-0.23812124133110046,-0.21301066875457764,0.6357389092445374
0210984a-415f-482e-9563-2b1034aa5764,39f0de63-6e96-42bf-9377-2259653f22df,1760000720980675055,-1.583099,-1.159668,1.207352,-0.001465,-0.627441,0.824707,0.2457919769650957,-37.28128584188145,84.34752690799925,0.7026934623718262,-0.23824679851531982,-0.21308788657188416,0.6356523036956787
0210984a-415f-482e-9563-2b1034aa5764,39f0de63-6e96-42bf-9377-2259653f22df,1760000720991390055,-1.583099,-1.342773,1.573563,-0.003906,-0.618164,0.8125,0.24219692135455398,-37.292638117554326,84.41390463007639,0.7022951245307922,-0.23817285895347595,-0.21331100165843964,0.6360452771186829
0210984a-415f-482e-9563-2b1034aa5764,39f0de63-6e96-42bf-9377-2259653f22df,1760000720999340055,-1.951218,-1.03569,2.122879,-0.01416,-0.632812,0.796875,0.2443512906620148,-37.3086417201761,84.47355872193508,0.7019350528717041,-0.23817165195941925,-0.21351078152656555,0.6363760828971863
0210984a-415f-482e-9563-2b1034aa5764,39f0de63-6e96-42bf-9377-2259653f22df,1760000721007290055,-1.886368,-1.401901,2.244949,0.005859,-0.629395,0.830078,0.24953450054475285,-37.330470085231376,84.50593108817154,0.7017200589179993,-0.23827362060546875,-0.21366776525974274,0.6365222930908203
0210984a-415f-482e-9563-2b1034aa5764,39f0de63-6e96-42bf-9377-2259653f22df,1760000721015240055,-1.951218,-1.096725,2.428055,0.0,-0.626465,0.827637,0.2528335928210729,-37.344418960003225,84.58449763409813,0.7012609839439392,-0.2382306605577469,-0.21388855576515198,0.6369699835777283
0210984a-415f-482e-9563-2b1034aa5764,39f0de63-6e96-42bf-9377-2259653f22df,1760000721023190055,-1.094818,-0.854492,2.550125,0.010254,-0.629883,0.828125,0.2577785169316647,-37.35341152323782,84.67031295008347,0.7007745504379272,-0.23815283179283142,-0.21408677101135254,0.6374676823616028
0210984a-415f-482e-9563-2b1034aa5764,39f0de63-6e96-42bf-9377-2259653f22df,1760000721033867055,-0.423431,-0.854492,2.733231,0.006348,-0.635742,0.836426,0.26324497673684527,-37.35938884910607,84.68126765135534,0.7007115483283997,-0.23819927871227264,-0.2141094207763672,0.6375119686126709
0210984a-415f-482e-9563-2b1034aa5764,39f0de63-6e96-42bf-9377-2259653f22df,1760000721044544055,-0.181198,-0.303268,2.916336,0.01709,-0.62793,0.834961,0.27172083837615946,-37.361827115095984,84.70596855265426,0.7005849480628967,-0.23821516335010529,-0.21412253379821777,0.6376407742500305
0210984a-415f-482e-9563-2b1034aa5764,39f0de63-6e96-42bf-9377-2259653f22df,1760000721055221055,0.307083,-0.242233,2.36702,0.014648,-0.625488,0.840332,0.27612685386410196,-37.3606419725964,84.75526269960031,0.7003212571144104,-0.2381403148174286,-0.21419145166873932,0.637935221195221
0210984a-415f-482e-9563-2b1034aa5764,39f0de63-6e96-42bf-9377-2259653f22df,1760000721063219055,0.675201,0.12207,2.305984,0.00293,-0.617676,0.824219,0.2904522153665121,-37.348683564884176,84.75339383770957,0.7003829479217529,-0.23815059661865234,-0.2140333205461502,0.6379166841506958
0210984a-415f-482e-9563-2b1034aa5764,39f0de63-6e96-42bf-9377-2259653f22df,1760000721071216055,0.551224,0.551224,1.817703,0.004395,-0.623047,0.829102,0.2976676053498763,-37.34335616727172,84.76332160919023,0.7003520727157593,-0.23813971877098083,-0.21398013830184937,0.6379724740982056
0210984a-415f-482e-9563-2b1034aa5764,39f0de63-6e96-42bf-9377-2259653f22df,1760000721079213055,0.858307,0.305176,1.878738,-0.001465,-0.62207,0.818848,0.3096436753729445,-37.33523704496375,84.83964217538242,0.6999660134315491,-0.2380143404006958,-0.21402022242546082,0.6384294033050537
0210984a-415f-482e-9563-2b1034aa5764,39f0de63-6e96-42bf-9377-2259653f22df,1760000721087210055,1.041412,0.793457,1.390457,0.019531,-0.614258,0.816406,0.31484504831967774,-37.32226383615524,84.91346936366814,0.699590802192688,-0.23782634735107422,-0.21406929194927216,0.6388940811157227
0210984a-415f-482e-9563-2b1034aa5764,39f0de63-6e96-42bf-9377-2259653f22df,1760000721096823055,0.919342,1.647949,0.597,0.007813,-0.641113,0.817383,0.3263979685415558,-37.315096117806796,84.92162396419872,0.6995815634727478,-0.23783186078071594,-0.21397563815116882,0.6389334797859192
0210984a-415f-482e-9563-2b1034aa5764,39f0de63-6e96-42bf-9377-2259653f22df,1760000721106436055,1.039505,2.199173,0.47493,0.01709,-0.62793,0.818848,0.33674579852969516,-37.30611122933112,84.91073130790201,0.699679970741272,-0.23785512149333954,-0.21383965015411377,0.6388626098632812
0210984a-415f-482e-9563-2b1034aa5764,39f0de63-6e96-42bf-9377-2259653f22df,1760000721116049055,1.041412,2.807617,0.291824,0.005859,-0.632324,0.818848,0.35745788121596483,-37.299762010194605,84.89543865654382,0.6998168230056763,-0.23796039819717407,-0.21364594995975494,0.6387383341789246
0210984a-415f-482e-9563-2b1034aa5764,39f0de63-6e96-42bf-9377-2259653f22df,1760000721125662055,0.736237,3.479004,-0.440598,0.012695,-0.619629,0.823242,0.377175133510859,-37.2929242797529,84.84215597160454,0.7001644372940063,-0.23812787234783173,-0.21337662637233734,0.6383848786354065
0210984a-415f-482e-9563-2b1034aa5764,39f0de63-6e96-42bf-9377-2259653f22df,1760000721135275055,1.409531,4.152298,-1.173019,0.008301,-0.618652,0.829102,0.40346958378766457,-37.278910646581465,84.79692582861459,0.7004938721656799,-0.238273024559021,-0.21304365992546082,0.6380804181098938
0210984a-415f-482e-9563-2b1034aa5764,39f0de63-6e96-42bf-9377-2259653f22df,1760000721143262055,1.344681,4.030228,-1.53923,0.000977,-0.619629,0.831543,0.42536288046844706,-37.263458844790065,84.76998092777988,0.7007160782814026,-0.23835070431232452,-0.21276751160621643,0.6378995776176453
0210984a-415f-482e-9563-2b1034aa5764,39f0de63-6e96-42bf-9377-2259653f22df,1760000721151249055,1.468658,4.394531,-1.600266,0.01123,-0.623535,0.827148,0.4431503774395838,-37.24823316948495,84.7327381846586,0.7009873986244202,-0.23842589557170868,-0.21249626576900482,0.6376637816429138
0210984a-415f-482e-9563-2b1034aa5764,39f0de63-6e96-42bf-9377-2259653f22df,1760000721159236055,1.590729,4.089355,-2.088547,-0.005859,-0.625,0.818359,0.462852674231551,-37.23568864374184,84.6948051411093,0.701260507106781,-0.2385292500257492,-0.2122267782688141,0.6374145150184631
0210984a-415f-482e-9563-2b1034aa5764,39f0de63-6e96-42bf-9377-2259653f22df,1760000721167223055,1.712799,3.662109,-2.271652,-0.013672,-0.621582,0.816406,0.4787932997491804,-37.2184328561575,84.65408257605937,0.701551616191864,-0.23858793079853058,-0.21194817125797272,0.637164831161499
0210984a-415f-482e-9563-2b1034aa5764,39f0de63-6e96-42bf-9377-2259653f22df,1760000721177915055,1.590729,3.78418,-2.454758,0.000977,-0.625488,0.832031,0.4899431514756784,-37.19998817833954,84.62401575772142,0.701776921749115,-0.23859284818172455,-0.21171443164348602,0.6369925737380981
0210984a-415f-482e-9563-2b1034aa5764,39f0de63-6e96-42bf-9377-2259653f22df,1760000721188607055,1.897812,4.152298,-2.576828,-0.006836,-0.618652,0.828125,0.5083642613321082,-37.18087636186648,84.61702164008713,0.7018886804580688,-0.23859141767024994,-0.21148046851158142,0.6369476914405823
0210984a-415f-482e-9563-2b1034aa5764,39f0de63-6e96-42bf-9377-2259653f22df,1760000721199299055,2.080917,3.847122,-2.820969,-0.016602,-0.630859,0.822754,0.5260480983933246,-37.16330096537326,84.58127830176085,0.7021556496620178,-0.23864825069904327,-0.21119970083236694,0.6367252469062805
0210984a-415f-482e-9563-2b1034aa5764,39f0de63-6e96-42bf-9377-2259653f22df,1760000721209973055,2.260208,3.664017,-2.943039,-0.006836,-0.632324,0.829102,0.5412684744950343,-37.14524219736328,84.53801488468815,0.7024607062339783,-0.23870210349559784,-0.21091563999652863,0.6364627480506897
0210984a-415f-482e-9563-2b1034aa5764,39f0de63-6e96-42bf-9377-2259653f22df,1760000721220648055,2.260208,4.091263,-2.820969,-0.01709,-0.614746,0.812012,0.558856414161307,-37.12797277612208,84.49618390368303,0.7027603983879089,-0.23877115547657013,-0.21062441170215607,0.636202335357666
0210984a-415f-482e-9563-2b1034aa5764,39f0de63-6e96-42bf-9377-2259653f22df,1760000721231323055,2.384186,3.90625,-2.637863,-0.014648,-0.640625,0.816895,0.5782310831077875,-37.108077074507975,84.47079253469617,0.7029772996902466,-0.2388036847114563,-0.21034181118011475,0.6360439658164978
0210984a-415f-482e-9563-2b1034aa5764,39f0de63-6e96-42bf-9377-2259653f22df,1760000721239295055,3.055573,3.417969,-2.698898,-0.019043,-0.62793,0.824707,0.62351075490021,-37.06399753808184,84.41972440082374,0.7034329771995544,-0.23887890577316284,-0.209711953997612,0.6357198357582092
0210984a-415f-482e-9563-2b1034aa5764,39f0de63-6e96-42bf-9377-2259653f22df,1760000721247267055,2.931595,3.847122,-2.210617,-0.018555,-0.612793,0.812012,0.6482652883987525,-37.04007369049763,84.40608433513242,0.7036023139953613,-0.2388947606086731,-0.2093982845544815,0.6356299519538879
0210984a-415f-482e-9563-2b1034aa5764,39f0de63-6e96-42bf-9377-2259653f22df,1760000721255239055,2.931595,3.602982,-2.149582,-0.027344,-0.625488,0.830566,0.6745123230924381,-37.013137386946106,84.42216017380197,0.7036154866218567,-0.23884619772434235,-0.20912057161331177,0.6357250213623047
0210984a-415f-482e-9563-2b1034aa5764,39f0de63-6e96-42bf-9377-2259653f22df,1760000721263211055,2.931595,3.1147,-1.844406,-0.035645,-0.623047,0.825195,0.7051578056104941,-36.98693490541749,84.41801682053355,0.7037472128868103,-0.23886345326900482,-0.20877774059772491,0.635685384273529
0210984a-415f-482e-9563-2b1034aa5764,39f0de63-6e96-42bf-9377-2259653f22df,1760000721273889055,3.543854,3.295898,-1.356125,-0.020996,-0.602539,0.825684,0.7306410288977013,-36.95287882995165,84.42786146408005,0.7038075923919678,-0.23877854645252228,-0.20845194160938263,0.635757327079773
0210984a-415f-482e-9563-2b1034aa5764,39f0de63-6e96-42bf-9377-2259653f22df,1760000721284567055,3.297806,2.809525,-1.234055,-0.015625,-0.617188,0.82959,0.7536178074869261,-36.91862301519566,84.46788885438234,0.7036961317062378,-0.2386237382888794,-0.20820321142673492,0.6360202431678772
0210984a-415f-482e-9563-2b1034aa5764,39f0de63-6e96-42bf-9377-2259653f22df,1760000721295245055,3.360748,2.929688,-0.745773,-0.029785,-0.612305,0.821289,0.7837203395475345,-36.885582374426676,84.47223490270666,0.7037929892539978,-0.2385808229446411,-0.2078430950641632,0.6360470056533813
0210984a-415f-482e-9563-2b1034aa5764,39f0de63-6e96-42bf-9377-2259653f22df,1760000721305912055,3.177643,2.441406,-0.135422,-0.018555,-0.614746,0.822754,0.8087493123422613,-36.85626557590408,84.47491932075846,0.7038822174072266,-0.2385355681180954,-0.2075313925743103,0.6360670328140259
0210984a-415f-482e-9563-2b1034aa5764,39f0de63-6e96-42bf-9377-2259653f22df,1760000721316577055,2.689362,2.07901,-0.074387,-0.018066,-0.602051,0.820801,0.83197651732201,-36.83038602093672,84.49627963720677,0.7038574814796448,-0.23846757411956787,-0.20728875696659088,0.6361989974975586
0210984a-415f-482e-9563-2b1034aa5764,39f0de63-6e96-42bf-9377-2259653f22df,1760000721327242055,2.569199,1.710892,0.535965,-0.018066,-0.608398,0.806641,0.8547854499364225,-36.805461732577314,84.51083266872784,0.7038677334785461,-0.23841549456119537,-0.20703980326652527,0.6362882256507874
0210984a-415f-482e-9563-2b1034aa5764,39f0de63-6e96-42bf-9377-2259653f22df,1760000721337903055,2.20108,1.647949,0.047684,-0.018066,-0.609863,0.816895,0.8975338653316982,-36.76462676830524,84.50086300873886,0.7040817141532898,-0.23842112720012665,-0.206528440117836,0.6362155675888062
0210984a-415f-482e-9563-2b1034aa5764,39f0de63-6e96-42bf-9377-2259653f22df,1760000721348565055,2.20108,2.07901,0.413895,-0.019043,-0.616699,0.80957,0.9209493607715576,-36.74846614685389,84.50675511841524,0.7041233777999878,-0.23844169080257416,-0.2063065767288208,0.6362337470054626
0210984a-415f-482e-9563-2b1034aa5764,39f0de63-6e96-42bf-9377-2259653f22df,1760000721359227055,1.344681,2.016068,0.535965,-0.027344,-0.611328,0.825195,0.9513325131486723,-36.736152005125014,84.5376626289869,0.7040309309959412,-0.23847950994968414,-0.20611542463302612,0.6363837718963623
0210984a-415f-482e-9563-2b1034aa5764,39f0de63-6e96-42bf-9377-2259653f22df,1760000721367225055,0.736237,2.01416,0.108719,-0.025391,-0.624023,0.815918,0.9777170458296688,-36.7289593263644,84.53818534698114,0.7040897607803345,-0.238581120967865,-0.2059142142534256,0.6363457441329956
0210984a-415f-482e-9563-2b1034aa5764,39f0de63-6e96-42bf-9377-2259653f22df,1760000721375224055,0.795364,1.649857,0.47493,-0.041504,-0.60498,0.818359,1.0034029787538639,-36.7240703045532,84.53473880076392,0.7041647434234619,-0.23870006203651428,-0.2057218849658966,0.636280357837677
0210984a-415f-482e-9563-2b1034aa5764,39f0de63-6e96-42bf-9377-2259653f22df,1760000721383223055,0.675201,1.647949,0.169754,-0.040039,-0.603027,0.828125,1.0299400251504174,-36.71523056761271,84.58046273312472,0.7039759755134583,-0.23871135711669922,-0.2056046724319458,0.6365228295326233
0210984a-415f-482e-9563-2b1034aa5764,39f0de63-6e96-42bf-9377-2259653f22df,1760000721399212055,0.736237,0.793457,0.108719,-0.032227,-0.619141,0.824707,1.0608625258448368,-36.70437676980095,84.62399242160731,0.7038111090660095,-0.2387387603521347,-0.20544470846652985,0.6367465257644653
0210984a-415f-482e-9563-2b1034aa5764,39f0de63-6e96-42bf-9377-2259653f22df,1760000721407205055,0.673294,0.429153,0.230789,-0.030273,-0.606934,0.816406,1.0680034914774623,-36.7053418268159,84.62131833066208,0.7038368582725525,-0.2387891262769699,-0.20540067553520203,0.6367133855819702
0210984a-415f-482e-9563-2b1034aa5764,39f0de63-6e96-42bf-9377-2259653f22df,1760000721415198055,0.8564,-0.425339,0.47493,-0.03418,-0.609375,0.814941,1.0782952733598197,-36.70492113988561,84.62521619035259,0.7038344740867615,-0.23883678019046783,-0.20534323155879974,0.6367166042327881
0210984a-415f-482e-9563-2b1034aa5764,39f0de63-6e96-42bf-9377-2259653f22df,1760000721423191055,0.736237,-0.793457,0.352859,-0.036133,-0.60791,0.822266,1.0899991135479716,-36.704596219907835,84.63889927680084,0.7037800550460815,-0.23887531459331512,-0.20529805123806,0.636776864528656
0210984a-415f-482e-9563-2b1034aa5764,39f0de63-6e96-42bf-9377-2259653f22df,1760000721433865055,0.431061,-1.281738,0.47493,-0.033691,-0.612793,0.823242,1.088373673268821,-36.701084636652766,84.62852400091143,0.7038417458534241,-0.23886340856552124,-0.20526675879955292,0.6367232799530029
0210984a-415f-482e-9563-2b1034aa5764,39f0de63-6e96-42bf-9377-2259653f22df,1760000721444539055,0.795364,-1.707077,0.352859,-0.031738,-0.61084,0.825195,1.0806425625541651,-36.694776756199566,84.61202563386567,0.7039320468902588,-0.23881147801876068,-0.20524457097053528,0.6366500854492188
0210984a-415f-482e-9563-2b1034aa5764,39f0de63-6e96-42bf-9377-2259653f22df,1760000721455213055,0.795364,-1.890182,0.597,-0.018555,-0.611328,0.828613,1.072182928264118,-36.68819790770301,84.67820792942425,0.7035620808601379,-0.23860570788383484,-0.2053975760936737,0.6370866894721985
0210984a-415f-482e-9563-2b1034aa5764,39f0de63-6e96-42bf-9377-2259653f22df,1760000721465908055,1.283646,-2.561569,0.902176,-0.013672,-0.600586,0.82959,1.063670095706525,-36.67591402220502,84.72314390821893,0.7033212184906006,-0.2384028285741806,-0.2054745852947235,0.637403666973114
0210984a-415f-482e-9563-2b1034aa5764,39f0de63-6e96-42bf-9377-2259653f22df,1760000721476605055,1.224518,-2.563477,1.146317,-0.016602,-0.609375,0.830566,1.0486354983458466,-36.66075559031948,84.71915233598804,0.7033464312553406,-0.23823381960391998,-0.20547367632389069,0.6374393701553345
0210984a-415f-482e-9563-2b1034aa5764,39f0de63-6e96-42bf-9377-2259653f22df,1760000721487302055,1.041412,-2.746582,1.146317,-0.021973,-0.604492,0.827637,1.0344682454993643,-36.65068113701456,84.71363311934638,0.7033716440200806,-0.23810341954231262,-0.2054927498102188,0.637454092502594
0210984a-415f-482e-9563-2b1034aa5764,39f0de63-6e96-42bf-9377-2259653f22df,1760000721495268055,1.407623,-2.502441,1.329422,-0.013672,-0.614746,0.821289,1.0060801882139174,-36.624956835684834,84.67412812646796,0.7035913467407227,-0.23785927891731262,-0.2054409682750702,0.6373194456100464
0210984a-415f-482e-9563-2b1034aa5764,39f0de63-6e96-42bf-9377-2259653f22df,1760000721503235055,1.224518,-2.319336,1.512527,-0.021484,-0.59375,0.814453,0.9973857895138311,-36.615694800927876,84.68305232928581,0.7035444378852844,-0.23773835599422455,-0.2054610252380371,0.6374098658561707
0210984a-415f-482e-9563-2b1034aa5764,39f0de63-6e96-42bf-9377-2259653f22df,1760000721511202055,0.673294,-2.378464,1.695633,-0.012695,-0.597168,0.815918,0.9845791665969658,-36.607409474737416,84.6961736586005,0.7034648656845093,-0.23759296536445618,-0.20552048087120056,0.6375327706336975
0210984a-415f-482e-9563-2b1034aa5764,39f0de63-6e96-42bf-9377-2259653f22df,1760000721519169055,0.795364,-2.744675,1.634598,-0.016602,-0.600098,0.816895,0.9758744552709281,-36.597011114332986,84.74138304101457,0.7032182216644287,-0.23739993572235107,-0.20560938119888306,0.6378480195999146
0210984a-415f-482e-9563-2b1034aa5764,39f0de63-6e96-42bf-9377-2259653f22df,1760000721529865055,0.673294,-2.561569,1.878738,-0.007812,-0.60791,0.825684,0.9656288047693704,-36.58931382342718,84.7767528414578,0.7030181288719177,-0.23723243176937103,-0.20570237934589386,0.6381008625030518
0210984a-415f-482e-9563-2b1034aa5764,39f0de63-6e96-42bf-9377-2259653f22df,1760000721540561055,0.123978,-2.195358,1.939774,-0.015625,-0.606934,0.816406,0.9580942820418802,-36.587816173859665,84.79770505259454,0.7028908729553223,-0.23714372515678406,-0.20578357577323914,0.6382477879524231
0210984a-415f-482e-9563-2b1034aa5764,39f0de63-6e96-42bf-9377-2259653f22df,1760000721551257055,-0.118256,-2.13623,2.183914,-0.007324,-0.608398,0.820312,0.9504002349130111,-36.58574409947115,84.8614742343702,0.7025258541107178,-0.2369736284017563,-0.20595106482505798,0.6386587619781494
0210984a-415f-482e-9563-2b1034aa5764,39f0de63-6e96-42bf-9377-2259653f22df,1760000721561899055,0.123978,-1.646042,1.817703,0.003906,-0.620605,0.833008,0.9408495460763132,-36.58345051164222,84.90608054416006,0.7022645473480225,-0.23682621121406555,-0.20608896017074585,0.6389562487602234
0210984a-415f-482e-9563-2b1034aa5764,39f0de63-6e96-42bf-9377-2259653f22df,1760000721572540055,-0.545502,-1.464844,1.634598,-0.012695,-0.608887,0.824219,0.9307036452870538,-36.58427737028034,84.91121602673041,0.7022160291671753,-0.23676542937755585,-0.20616638660430908,0.6390071511268616
0210984a-415f-482e-9563-2b1034aa5764,39f0de63-6e96-42bf-9377-2259653f22df,1760000721583181055,-0.484467,-1.159668,1.512527,0.006348,-0.62207,0.830078,0.9252111978777972,-36.58601667710625,84.906849593323,0.7022270560264587,-0.23675328493118286,-0.20620077848434448,0.6389883756637573
0210984a-415f-482e-9563-2b1034aa5764,39f0de63-6e96-42bf-9377-2259653f22df,1760000721591188055,-0.486374,-1.462936,1.085281,-0.007324,-0.599121,0.834473,0.9039358789572596,-36.589082832625465,84.90167442265292,0.7022115588188171,-0.23666265606880188,-0.20633766055107117,0.6389948129653931
0210984a-415f-482e-9563-2b1034aa5764,39f0de63-6e96-42bf-9377-2259653f22df,1760000721599195055,-0.486374,-0.974655,1.146317,-0.000488,-0.61377,0.816406,0.8983954796673378,-36.591990102826955,84.89812752309115,0.7022156119346619,-0.23665587604045868,-0.20638059079647064,0.6389790177345276
0210984a-415f-482e-9563-2b1034aa5764,39f0de63-6e96-42bf-9377-2259653f22df,1760000721607202055,-0.486374,-1.279831,0.597,-0.00293,-0.618652,0.833496,0.8870878437729842,-36.59552899299326,84.88443213375956,0.7022646069526672,-0.2366390824317932,-0.20644144713878632,0.6389117240905762
0210984a-415f-482e-9563-2b1034aa5764,39f0de63-6e96-42bf-9377-2259653f22df,1760000721615209055,-0.486374,-0.79155,0.841141,-0.00293,-0.601562,0.824219,0.8825432993244225,-36.59014930418888,84.90597250609935,0.7021469473838806,-0.23654212057590485,-0.2064836025238037,0.63906329870224
0210984a-415f-482e-9563-2b1034aa5764,39f0de63-6e96-42bf-9377-2259653f22df,1760000721625883055,-0.364304,-1.279831,0.597,-0.002441,-0.612305,0.830566,0.8746316051916445,-36.58939426293977,84.91906257706448,0.7020611763000488,-0.2364697903394699,-0.2065548598766327,0.6391612887382507
0210984a-415f-482e-9563-2b1034aa5764,39f0de63-6e96-42bf-9377-2259653f22df,1760000721636557055,-0.543594,-0.608444,0.230789,-0.004395,-0.609375,0.833496,0.8713601223363862,-36.58732793740782,84.90458833863974,0.7021400928497314,-0.23646505177021027,-0.20653344690799713,0.639083206653595
0210984a-415f-482e-9563-2b1034aa5764,39f0de63-6e96-42bf-9377-2259653f22df,1760000721647231055,-0.423431,-0.610352,0.535965,-0.011719,-0.619629,0.830566,0.8684069130166978,-36.58831862618245,84.91541239783128,0.7020724415779114,-0.23643510043621063,-0.20657943189144135,0.639153778553009
0210984a-415f-482e-9563-2b1034aa5764,39f0de63-6e96-42bf-9377-2259653f22df,1760000721657879055,-0.120163,-0.242233,0.597,-0.000977,-0.606445,0.827637,0.8620378377040464,-36.58447371716186,84.92748685225452,0.7020012140274048,-0.23635435104370117,-0.20662179589271545,0.6392481923103333
0210984a-415f-482e-9563-2b1034aa5764,39f0de63-6e96-42bf-9377-2259653f22df,1760000721668529055,-0.240326,-0.12207,0.108719,-0.005371,-0.60791,0.819824,0.853819078379822,-36.58519349039718,84.9084284875191,0.7020912766456604,-0.2363472729921341,-0.20663687586784363,0.6391469836235046
0210984a-415f-482e-9563-2b1034aa5764,39f0de63-6e96-42bf-9377-2259653f22df,1760000721679179055,-0.484467,0.305176,-0.074387,-0.005859,-0.605469,0.821289,0.8512738720014482,-36.58256416980227,84.89693276820253,0.7021560072898865,-0.23633776605129242,-0.20661401748657227,0.6390867829322815
0210984a-415f-482e-9563-2b1034aa5764,39f0de63-6e96-42bf-9377-2259653f22df,1760000721689873055,-0.669479,0.429153,-0.074387,0.011719,-0.609863,0.82373,0.8416771803928902,-36.58059193096432,84.90458596066406,0.7020999193191528,-0.23625841736793518,-0.20667754113674164,0.6391571760177612
0210984a-415f-482e-9563-2b1034aa5764,39f0de63-6e96-42bf-9377-2259653f22df,1760000721700567055,-0.240326,0.793457,-0.135422,-0.008301,-0.609863,0.820801,0.8403333607670463,-36.58183948744204,84.91370002194914,0.7020441889762878,-0.23624208569526672,-0.2067115604877472,0.6392134428024292
0210984a-415f-482e-9563-2b1034aa5764,39f0de63-6e96-42bf-9377-2259653f22df,1760000721711261055,-0.667572,0.793457,0.108719,-0.002441,-0.615234,0.837891,0.8337705401785238,-36.57968713422416,84.914970525352,0.7020295262336731,-0.2361900359392166,-0.2067423164844513,0.6392388939857483
0210984a-415f-482e-9563-2b1034aa5764,39f0de63-6e96-42bf-9377-2259653f22df,1760000721719249055,-1.031876,0.917435,-0.013351,-0.012207,-0.607422,0.831543,0.8359568992546258,-36.584084535390026,84.93846497256139,0.70189368724823,-0.236186683177948,-0.20680201053619385,0.6393699049949646
0210984a-415f-482e-9563-2b1034aa5764,39f0de63-6e96-42bf-9377-2259653f22df,1760000721727235055,-0.911713,1.102448,-0.257492,-0.012207,-0.608887,0.833008,0.8416569910690476,-36.59278699953533,84.96505812126266,0.7017383575439453,-0.23622354865074158,-0.20687073469161987,0.6395045518875122
0210984a-415f-482e-9563-2b1034aa5764,39f0de63-6e96-42bf-9377-2259653f22df,1760000721735221055,-0.728607,1.159668,0.108719,0.002441,-0.598145,0.840332,0.8480178164142647,-36.59938905467352,84.95393260991484,0.7017988562583923,-0.2363193780183792,-0.20684587955474854,0.6394107937812805
0210984a-415f-482e-9563-2b1034aa5764,39f0de63-6e96-42bf-9377-2259653f22df,1760000721743207055,-0.545502,1.159668,-0.318527,-0.006348,-0.61377,0.845703,0.8429138030284806,-36.593192546267694,84.93627698122972,0.7019004225730896,-0.23628497123718262,-0.2068059742450714,0.639324963092804
0210984a-415f-482e-9563-2b1034aa5764,39f0de63-6e96-42bf-9377-2259653f22df,1760000721753876055,-0.364304,1.161575,-0.623703,-0.008789,-0.608887,0.834473,0.8388941647612449,-36.589343684701575,84.91693945046971,0.7020086646080017,-0.23627398908138275,-0.20676913857460022,0.6392220258712769
0210984a-415f-482e-9563-2b1034aa5764,39f0de63-6e96-42bf-9377-2259653f22df,1760000721764545055,-0.486374,1.344681,-0.135422,-0.008301,-0.608887,0.823242,0.8403832675223021,-36.58635375484035,84.93054500313679,0.7019413709640503,-0.2362395077943802,-0.20677129924297333,0.639307975769043
0210984a-415f-482e-9563-2b1034aa5764,39f0de63-6e96-42bf-9377-2259653f22df,1760000721775214055,-0.543594,1.22261,-0.318527,-0.009277,-0.628906,0.818848,0.8423349538822015,-36.58871095577678,84.9352434188705,0.7019140124320984,-0.23625630140304565,-0.2067822515964508,0.6393282413482666
0210984a-415f-482e-9563-2b1034aa5764,39f0de63-6e96-42bf-9377-2259653f22df,1760000721785884055,-0.486374,0.917435,-0.318527,-0.007812,-0.614746,0.825195,0.8325714188263408,-36.59174393251059,84.92677872663904,0.7019376158714294,-0.236235573887825,-0.2068416178226471,0.6392908692359924
0210984a-415f-482e-9563-2b1034aa5764,39f0de63-6e96-42bf-9377-2259653f22df,1760000721796555055,-0.486374,0.917435,-0.257492,-0.007324,-0.606445,0.828613,0.8282051229965927,-36.59056972195877,84.92799371174442,0.7019252777099609,-0.23620188236236572,-0.20686428248882294,0.6393094658851624
0210984a-415f-482e-9563-2b1034aa5764,39f0de63-6e96-42bf-9377-2259653f22df,1760000721807226055,-0.606537,1.102448,0.230789,-0.001953,-0.604492,0.830078,0.8232174462370025,-36.586122407965576,84.91754187355228,0.7019833922386169,-0.23616579174995422,-0.2068483531475067,0.6392641663551331
0210984a-415f-482e-9563-2b1034aa5764,39f0de63-6e96-42bf-9377-2259653f22df,1760000721815216055,-0.240326,1.342773,0.352859,-0.004883,-0.60498,0.814453,0.8173572296964408,-36.58338313779327,84.92300700523798,0.7019477486610413,-0.2361065298318863,-0.20688015222549438,0.6393148899078369
0210984a-415f-482e-9563-2b1034aa5764,39f0de63-6e96-42bf-9377-2259653f22df,1760000721823206055,-0.606537,1.831055,0.108719,0.003906,-0.600098,0.82373,0.8285423263424955,-36.58383226979759,84.95763697784344,0.7017738223075867,-0.2361091524362564,-0.20688551664352417,0.6395031213760376
0210984a-415f-482e-9563-2b1034aa5764,39f0de63-6e96-42bf-9377-2259653f22df,1760000721831196055,-0.669479,1.832962,0.108719,-0.014648,-0.608398,0.821289,0.8391549222822894,-36.58878518123661,84.96354306950798,0.7017502188682556,-0.2361879050731659,-0.2068604826927185,0.639508068561554
0210984a-415f-482e-9563-2b1034aa5764,39f0de63-6e96-42bf-9377-2259653f22df,1760000721839186055,-0.974655,2.321243,-0.257492,0.0,-0.62207,0.815918,0.8542414187128432,-36.59538436808822,84.96601802982723,0.7017505764961243,-0.23630787432193756,-0.20681022107601166,0.6394795775413513
0210984a-415f-482e-9563-2b1034aa5764,39f0de63-6e96-42bf-9377-2259653f22df,1760000721849889055,-1.279831,2.016068,-0.318527,-0.001953,-0.611328,0.814941,0.8694108987434498,-36.608724006152976,84.96664253787574,0.7017480731010437,-0.2364727109670639,-0.20679345726966858,0.6394268274307251
0210984a-415f-482e-9563-2b1034aa5764,39f0de63-6e96-42bf-9377-2259653f22df,1760000721860592055,-1.462936,2.016068,-0.684738,-0.003418,-0.612793,0.837402,0.8812981414528943,-36.619018692758715,84.95371765702663,0.7018212676048279,-0.23662510514259338,-0.2067517340183258,0.6393036246299744
0210984a-415f-482e-9563-2b1034aa5764,39f0de63-6e96-42bf-9377-2259653f22df,1760000721871295055,-1.520157,2.321243,-1.050949,-0.005859,-0.608398,0.816406,0.8908584359326868,-36.63075900650227,84.93809149337822,0.701902449131012,-0.23677819967269897,-0.20672675967216492,0.6391658782958984
0210984a-415f-482e-9563-2b1034aa5764,39f0de63-6e96-42bf-9377-2259653f22df,1760000721881929055,-1.646042,2.687454,-1.29509,0.005859,-0.602051,0.816895,0.9123318728615489,-36.66176812292157,84.91123074689598,0.7020295858383179,-0.23713545501232147,-0.20671358704566956,0.6388980150222778
0210984a-415f-482e-9563-2b1034aa5764,39f0de63-6e96-42bf-9377-2259653f22df,1760000721892564055,-1.338959,2.746582,-2.027512,-0.003418,-0.606445,0.803223,0.9242319948424551,-36.67630646778029,84.90993818554803,0.7020294666290283,-0.23729276657104492,-0.2067195326089859,0.6388378143310547
0210984a-415f-482e-9563-2b1034aa5764,39f0de63-6e96-42bf-9377-2259653f22df,1760000721903199055,-1.522064,3.601074,-2.210617,-0.006836,-0.61084,0.812012,0.935378702588547,-36.69074103714558,84.87473953800529,0.702217161655426,-0.2375064194202423,-0.2066592425107956,0.6385715007781982
0210984a-415f-482e-9563-2b1034aa5764,39f0de63-6e96-42bf-9377-2259653f22df,1760000721913877055,-2.193451,3.78418,-3.492355,-0.039062,-0.618652,0.811523,0.9499599621979501,-36.70796355607536,84.86439131354867,0.7022669911384583,-0.2377113401889801,-0.2066449671983719,0.6384450793266296
0210984a-415f-482e-9563-2b1034aa5764,39f0de63-6e96-42bf-9377-2259653f22df,1760000721924555055,-2.071381,2.807617,-3.980637,-0.033203,-0.624023,0.818359,0.9662536740245786,-36.730007429758786,84.89501892910305,0.7020820379257202,-0.23788128793239594,-0.20673225820064545,0.6385568976402283
0210984a-415f-482e-9563-2b1034aa5764,39f0de63-6e96-42bf-9377-2259653f22df,1760000721935233055,-2.439499,2.199173,-4.529953,-0.038574,-0.616699,0.817871,0.9726549198821609,-36.754012850366756,84.84446764628267,0.7023276090621948,-0.23815448582172394,-0.20672258734703064,0.6381880640983582
0210984a-415f-482e-9563-2b1034aa5764,39f0de63-6e96-42bf-9377-2259653f22df,1760000721943266055,-2.681732,1.102448,-4.590988,-0.024414,-0.61377,0.820312,0.9609150720559714,-36.79805474631578,84.71178636892797,0.7029573917388916,-0.23859718441963196,-0.20676518976688385,0.6373149752616882
0210984a-415f-482e-9563-2b1034aa5764,39f0de63-6e96-42bf-9377-2259653f22df,1760000721951297055,-2.073288,0.551224,-5.018234,-0.035156,-0.61377,0.823242,0.9425013918417807,-36.81673098275505,84.63789642842079,0.7032977938652039,-0.2387421876192093,-0.2068287432193756,0.6368643045425415
0210984a-415f-482e-9563-2b1034aa5764,39f0de63-6e96-42bf-9377-2259653f22df,1760000721959328055,-1.766205,-0.305176,-4.774094,-0.041504,-0.616699,0.827637,0.926287128641904,-36.83352377216605,84.56910116132165,0.7036172747612,-0.23887884616851807,-0.20687876641750336,0.6364438533782959
0210984a-415f-482e-9563-2b1034aa5764,39f0de63-6e96-42bf-9377-2259653f22df,1760000721967359055,-2.134323,-1.096725,-4.529953,-0.03125,-0.60498,0.832031,0.8953363230345202,-36.84991766659102,84.53469044235489,0.7037197351455688,-0.2388693243265152,-0.2070886641740799,0.6362658143043518
0210984a-415f-482e-9563-2b1034aa5764,39f0de63-6e96-42bf-9377-2259653f22df,1760000721977977055,-1.829147,-2.073288,-4.224777,-0.040527,-0.620605,0.837402,0.8612077420406451,-36.865332094077765,84.53044599686164,0.7036507725715637,-0.23878172039985657,-0.20737546682357788,0.6362815499305725
0210984a-415f-482e-9563-2b1034aa5764,39f0de63-6e96-42bf-9377-2259653f22df,1760000721988595055,-1.646042,-2.92778,-4.041672,-0.050781,-0.620117,0.827637,0.8270407791124281,-36.884765292069005,84.55742043454376,0.703400194644928,-0.23866188526153564,-0.20774993300437927,0.6364814043045044
0210984a-415f-482e-9563-2b1034aa5764,39f0de63-6e96-42bf-9377-2259653f22df,1760000721999213055,-1.951218,-3.538132,-3.858566,-0.030273,-0.621094,0.817383,0.7811760688653635,-36.903043177689916,84.54539253211169,0.7033471465110779,-0.23854069411754608,-0.20810845494270325,0.6364682912826538
0210984a-415f-482e-9563-2b1034aa5764,39f0de63-6e96-42bf-9377-2259653f22df,1760000722009885055,-1.340866,-4.331589,-2.820969,-0.033691,-0.632324,0.819824,0.736064916523694,-36.92168786144705,84.53152155860973,0.7033047676086426,-0.23842930793762207,-0.20846052467823029,0.636441707611084
0210984a-415f-482e-9563-2b1034aa5764,39f0de63-6e96-42bf-9377-2259653f22df,1760000722020557055,-1.155853,-4.455566,-2.454758,-0.033691,-0.616699,0.830078,0.689207069866434,-36.93657091335254,84.52915536282033,0.7032026648521423,-0.23826436698436737,-0.2088262140750885,0.636496365070343
0210984a-415f-482e-9563-2b1034aa5764,39f0de63-6e96-42bf-9377-2259653f22df,1760000722031229055,-0.667572,-4.943848,-2.027512,-0.03418,-0.62207,0.829102,0.6470271002077159,-36.94499602026387,84.52590235650621,0.703126847743988,-0.2380875200033188,-0.20912528038024902,0.6365481019020081
0210984a-415f-482e-9563-2b1034aa5764,39f0de63-6e96-42bf-9377-2259653f22df,1760000722039273055,-0.606537,-4.943848,-1.234055,-0.008301,-0.604004,0.82373,0.5556895551741166,-36.95151499744368,84.52595462047731,0.7029464840888977,-0.23761983215808868,-0.2097221165895462,0.6367257237434387
0210984a-415f-482e-9563-2b1034aa5764,39f0de63-6e96-42bf-9377-2259653f22df,1760000722047317055,-0.543594,-4.514694,-0.806808,-0.01709,-0.613281,0.823242,0.5162060163193586,-36.951039248859914,84.53542552258351,0.7028225064277649,-0.23738017678260803,-0.2099812775850296,0.6368665099143982
0210984a-415f-482e-9563-2b1034aa5764,39f0de63-6e96-42bf-9377-2259653f22df,1760000722055361055,-0.423431,-4.882812,-0.623703,-0.010254,-0.624023,0.823242,0.47297401892869545,-36.95439994241623,84.52789736049411,0.7027782797813416,-0.23717425763607025,-0.21024957299232483,0.6369035243988037
0210984a-415f-482e-9563-2b1034aa5764,39f0de63-6e96-42bf-9377-2259653f22df,1760000722063405055,0.001907,-4.148483,-0.196457,-0.016602,-0.614746,0.813965,0.43810803952715316,-36.95921732673322,84.52875996703149,0.7026997208595276,-0.23700836300849915,-0.21049202978610992,0.6369718313217163
0210984a-415f-482e-9563-2b1034aa5764,39f0de63-6e96-42bf-9377-2259653f22df,1760000722074054055,-0.423431,-3.601074,0.291824,-0.013184,-0.630371,0.819336,0.40957129975563134,-36.96558728517825,84.5323795168131,0.7026142477989197,-0.2368820309638977,-0.21071000397205353,0.6370410919189453
0210984a-415f-482e-9563-2b1034aa5764,39f0de63-6e96-42bf-9377-2259653f22df,1760000722084703055,-0.606537,-3.234863,0.413895,-0.001953,-0.627441,0.817871,0.3867530141012805,-36.97316368635993,84.56772042054409,0.7023603916168213,-0.2367364913225174,-0.21096515655517578,0.6372905969619751
0210984a-415f-482e-9563-2b1034aa5764,39f0de63-6e96-42bf-9377-2259653f22df,1760000722095352055,-0.364304,-2.80571,0.597,-0.009766,-0.614258,0.822754,0.3653708962507192,-36.9752828375578,84.57806414317757,0.7022591829299927,-0.236611470580101,-0.21112938225269318,0.6373941898345947
0210984a-415f-482e-9563-2b1034aa5764,39f0de63-6e96-42bf-9377-2259653f22df,1760000722105982055,-0.423431,-2.010345,0.658035,0.001465,-0.620605,0.809082,0.3438004592943382,-36.978794566758474,84.54391366254075,0.7024022340774536,-0.2365759164094925,-0.21121065318584442,0.6372228264808655
0210984a-415f-482e-9563-2b1034aa5764,39f0de63-6e96-42bf-9377-2259653f22df,1760000722116611055,-0.669479,-2.195358,0.780106,0.005371,-0.605469,0.812012,0.32377970760860597,-36.98930525677788,84.5319872918928,0.7024102807044983,-0.23655088245868683,-0.21136732399463654,0.6371713280677795
0210984a-415f-482e-9563-2b1034aa5764,39f0de63-6e96-42bf-9377-2259653f22df,1760000722127240055,-0.974655,-1.401901,0.902176,0.015137,-0.608398,0.811035,0.30575072573486706,-36.99535391715864,84.53366453595267,0.7023553848266602,-0.2364845722913742,-0.21151499450206757,0.6372073888778687
0210984a-415f-482e-9563-2b1034aa5764,39f0de63-6e96-42bf-9377-2259653f22df,1760000722135225055,-1.094818,-1.647949,0.902176,0.00293,-0.614258,0.811523,0.28123823540803883,-37.00846808491687,84.57053787517029,0.7020783424377441,-0.2363603711128235,-0.21181435883045197,0.6374592781066895
0210984a-415f-482e-9563-2b1034aa5764,39f0de63-6e96-42bf-9377-2259653f22df,1760000722143210055,-0.728607,-1.647949,0.963211,-0.005371,-0.611328,0.810059,0.27133791079469516,-37.01841422987356,84.59060658930245,0.7019281387329102,-0.23632901906967163,-0.21197183430194855,0.6375839710235596
0210984a-415f-482e-9563-2b1034aa5764,39f0de63-6e96-42bf-9377-2259653f22df,1760000722151195055,-1.216888,-1.647949,0.597,0.009766,-0.611816,0.817871,0.2560646203950603,-37.02719500762797,84.62057360808447,0.7017152309417725,-0.23624226450920105,-0.212176114320755,0.6377825140953064
0210984a-415f-482e-9563-2b1034aa5764,39f0de63-6e96-42bf-9377-2259653f22df,1760000722159180055,-1.461029,-1.342773,0.535965,0.002441,-0.620605,0.825195,0.24488191582101243,-37.03614682097161,84.63714586981202,0.7015840411186218,-0.23620404303073883,-0.21232865750789642,0.6378902792930603
0210984a-415f-482e-9563-2b1034aa5764,39f0de63-6e96-42bf-9377-2259653f22df,1760000722170234055,-1.522064,-1.342773,0.658035,-0.001465,-0.608398,0.823242,0.23465447614549656,-37.04677085228738,84.63110306962197,0.7015770673751831,-0.23622329533100128,-0.21243804693222046,0.6378543376922607
0210984a-415f-482e-9563-2b1034aa5764,39f0de63-6e96-42bf-9377-2259653f22df,1760000722181288055,-1.216888,-0.976562,0.535965,0.009766,-0.627441,0.831055,0.22296930410488935,-37.0555261135392,84.6476558932021,0.7014454007148743,-0.23618106544017792,-0.21259251236915588,0.6379633545875549
0210984a-415f-482e-9563-2b1034aa5764,39f0de63-6e96-42bf-9377-2259653f22df,1760000722192342055,-1.462936,-0.79155,0.47493,0.004883,-0.628906,0.811523,0.21593179022418035,-37.071575705525916,84.64927829876689,0.7013905644416809,-0.23623701930046082,-0.21272841095924377,0.6379575729370117
0210984a-415f-482e-9563-2b1034aa5764,39f0de63-6e96-42bf-9377-2259653f22df,1760000722202641055,-0.911713,-0.183105,0.47493,0.01416,-0.621582,0.828125,0.20979954633705936,-37.07668476380694,84.61896497371178,0.7015374898910522,-0.23629039525985718,-0.21273192763328552,0.6377750635147095
0210984a-415f-482e-9563-2b1034aa5764,39f0de63-6e96-42bf-9377-2259653f22df,1760000722212942055,-0.728607,-0.366211,0.47493,0.008789,-0.621582,0.827148,0.20499231983274915,-37.073898314840875,84.62484177318669,0.7015015482902527,-0.23623566329479218,-0.21275794506072998,0.6378262639045715
0210984a-415f-482e-9563-2b1034aa5764,39f0de63-6e96-42bf-9377-2259653f22df,1760000722223243055,-0.974655,-0.303268,0.108719,-0.005859,-0.615723,0.822266,0.19967930861683636,-37.07182313863231,84.63548034704563,0.7014366984367371,-0.23617365956306458,-0.21280083060264587,0.6379061937332153
0210984a-415f-482e-9563-2b1034aa5764,39f0de63-6e96-42bf-9377-2259653f22df,1760000722233906055,-0.852585,-0.059128,-0.013351,0.0,-0.630859,0.82373,0.19893696191790547,-37.07297930968838,84.62404726796099,0.7014966011047363,-0.236197829246521,-0.21278825402259827,0.6378355622291565
0210984a-415f-482e-9563-2b1034aa5764,39f0de63-6e96-42bf-9377-2259653f22df,1760000722244570055,-0.789642,0.183105,0.047684,-0.005371,-0.603516,0.835449,0.19868476346265498,-37.066260184086666,84.63932993964286,0.701424777507782,-0.23612695932388306,-0.2127838432788849,0.6379422545433044
0210984a-415f-482e-9563-2b1034aa5764,39f0de63-6e96-42bf-9377-2259653f22df,1760000722255234055,-0.362396,0.12207,0.169754,0.007813,-0.612793,0.828613,0.1943520686452282,-37.06216047268898,84.69579483915827,0.7011106610298157,-0.23597289621829987,-0.21290381252765656,0.6383044123649597
0210984a-415f-482e-9563-2b1034aa5764,39f0de63-6e96-42bf-9377-2259653f22df,1760000722265893055,-0.852585,0.795364,-0.379562,0.009277,-0.594238,0.81543,0.19127172999666528,-37.061417068678395,84.74230364480677,0.700847327709198,-0.2358647584915161,-0.21301425993442535,0.6385966539382935
0210984a-415f-482e-9563-2b1034aa5764,39f0de63-6e96-42bf-9377-2259653f22df,1760000722276555055,-0.911713,1.102448,-0.684738,0.004883,-0.610352,0.821289,0.18960592883454644,-37.062712681939885,84.7628233675278,0.7007272243499756,-0.23582524061203003,-0.21307390928268433,0.6387231349945068
0210984a-415f-482e-9563-2b1034aa5764,39f0de63-6e96-42bf-9377-2259653f22df,1760000722287217055,-1.340866,1.283646,-0.806808,-0.00293,-0.634277,0.816895,0.19248118233929862,-37.0689904298677,84.8196544940609,0.7004029154777527,-0.23577392101287842,-0.21320831775665283,0.6390528082847595
0210984a-415f-482e-9563-2b1034aa5764,39f0de63-6e96-42bf-9377-2259653f22df,1760000722295250055,-1.157761,1.405716,-0.745773,0.005859,-0.611328,0.821289,0.20744657408725758,-37.091559441143616,84.88562010191121,0.7000167965888977,-0.23587235808372498,-0.2133786827325821,0.6393826603889465
0210984a-415f-482e-9563-2b1034aa5764,39f0de63-6e96-42bf-9377-2259653f22df,1760000722303282055,-1.399994,1.102448,-0.806808,-0.003906,-0.624512,0.816406,0.21288592189791675,-37.103732217661005,84.87620465948335,0.7000546455383301,-0.23599450290203094,-0.21339407563209534,0.6392910480499268
0210984a-415f-482e-9563-2b1034aa5764,39f0de63-6e96-42bf-9377-2259653f22df,1760000722311314055,-1.399994,1.342773,-0.867844,-0.010742,-0.619141,0.82666,0.22038750598457696,-37.11469562970117,84.86107786619321,0.7001306414604187,-0.2361314296722412,-0.21337832510471344,0.6391624808311462
0210984a-415f-482e-9563-2b1034aa5764,39f0de63-6e96-42bf-9377-2259653f22df,1760000722319346055,-1.340866,1.039505,-0.989914,-0.003906,-0.612793,0.826172,0.22256705490531628,-37.12363043825055,84.81962100216228,0.7003476619720459,-0.2362753003835678,-0.21332944929599762,0.6388878226280212
0210984a-415f-482e-9563-2b1034aa5764,39f0de63-6e96-42bf-9377-2259653f22df,1760000722329968055,-1.214981,1.039505,-1.050949,-0.003418,-0.606445,0.81543,0.22481351490840815,-37.13007692507003,84.78094944503262,0.7005542516708374,-0.23639917373657227,-0.21327194571495056,0.6386346220970154
0210984a-415f-482e-9563-2b1034aa5764,39f0de63-6e96-42bf-9377-2259653f22df,1760000722340590055,-1.399994,1.590729,-1.050949,-0.000977,-0.618652,0.820312,0.23077446909215416,-37.14346245851356,84.7493897737275,0.7007138729095459,-0.23657286167144775,-0.21324506402015686,0.638404130935669
0210984a-415f-482e-9563-2b1034aa5764,39f0de63-6e96-42bf-9377-2259653f22df,1760000722351212055,-1.031876,1.405716,-1.111984,0.003418,-0.619629,0.818848,0.2342000385121894,-37.15305317260472,84.7802883253393,0.7005285024642944,-0.23659300804138184,-0.21334142982959747,0.6385678648948669
0210984a-415f-482e-9563-2b1034aa5764,39f0de63-6e96-42bf-9377-2259653f22df,1760000722361884055,-0.911713,1.342773,-0.989914,0.003906,-0.607422,0.822754,0.24211265179250657,-37.16615084127622,84.82246261440396,0.7002814412117004,-0.23663850128650665,-0.2134532630443573,0.638784646987915
0210984a-415f-482e-9563-2b1034aa5764,39f0de63-6e96-42bf-9377-2259653f22df,1760000722372555055,-0.852585,1.22261,-0.989914,-0.006348,-0.611816,0.823242,0.24431840912836772,-37.171329918930475,84.80680203450825,0.7003622651100159,-0.23671159148216248,-0.21343635022640228,0.6386745572090149
0210984a-415f-482e-9563-2b1034aa5764,39f0de63-6e96-42bf-9377-2259653f22df,1760000722383226055,-0.911713,0.610352,-1.050949,-0.023438,-0.615723,0.813965,0.25021616337893043,-37.174726103958875,84.78636260661524,0.7004802227020264,-0.23680323362350464,-0.21337702870368958,0.6385310888290405
0210984a-415f-482e-9563-2b1034aa5764,39f0de63-6e96-42bf-9377-2259653f22df,1760000722391224055,-0.911713,0.793457,-0.440598,-0.016602,-0.611816,0.814453,0.26128856875029166,-37.17476884046524,84.7471971354292,0.7007189393043518,-0.23693808913230896,-0.21322861313819885,0.6382686495780945
0210984a-415f-482e-9563-2b1034aa5764,39f0de63-6e96-42bf-9377-2259653f22df,1760000722399224055,-0.972748,0.610352,-0.684738,-0.022949,-0.621582,0.8125,0.2680172812429139,-37.17642172718565,84.73447628222799,0.7007989287376404,-0.23700934648513794,-0.2131703794002533,0.6381737589836121
0210984a-415f-482e-9563-2b1034aa5764,39f0de63-6e96-42bf-9377-2259653f22df,1760000722407224055,-1.277924,0.305176,-0.257492,-0.023926,-0.616211,0.8125,0.2752441481001583,-37.17963373747167,84.74304391077378,0.7007580995559692,-0.2370532602071762,-0.21316182613372803,0.6382051706314087
0210984a-415f-482e-9563-2b1034aa5764,39f0de63-6e96-42bf-9377-2259653f22df,1760000722415224055,-1.462936,0.246048,-0.257492,-0.021973,-0.612793,0.813965,0.2843942142811128,-37.19364063720349,84.77942384850527,0.7005438804626465,-0.2371220737695694,-0.21325930953025818,0.6383821368217468
0210984a-415f-482e-9563-2b1034aa5764,39f0de63-6e96-42bf-9377-2259653f22df,1760000722425886055,-1.522064,-0.366211,0.413895,-0.011719,-0.609863,0.814453,0.29167533345859836,-37.206362474607516,84.8239645657656,0.7002832889556885,-0.23715734481811523,-0.21337799727916718,0.6386153101921082
0210984a-415f-482e-9563-2b1034aa5764,39f0de63-6e96-42bf-9377-2259653f22df,1760000722436548055,-2.071381,-0.488281,0.47493,-0.001953,-0.603027,0.800293,0.29367659948844177,-37.22249798285171,84.82774939184493,0.700232982635498,-0.2372598946094513,-0.213463693857193,0.6386037468910217
0210984a-415f-482e-9563-2b1034aa5764,39f0de63-6e96-42bf-9377-2259653f22df,1760000722447210055,-2.256393,-1.218796,1.085281,-0.021484,-0.62207,0.817871,0.2992843131761167,-37.2452151840662,84.85003686955282,0.7000728249549866,-0.23738820850849152,-0.2136024385690689,0.6386852264404297
0210984a-415f-482e-9563-2b1034aa5764,39f0de63-6e96-42bf-9377-2259653f22df,1760000722457868055,-2.622604,-1.218796,1.451492,-0.005859,-0.624512,0.82959,0.2983431667849075,-37.26989772226777,84.89154050108905,0.69978928565979,-0.2374560832977295,-0.2138320356607437,0.6388938426971436
0210984a-415f-482e-9563-2b1034aa5764,39f0de63-6e96-42bf-9377-2259653f22df,1760000722468526055,-2.193451,-1.342773,1.695633,-0.004883,-0.629883,0.815918,0.29675964733909044,-37.29131975900652,84.86486148346246,0.6998912692070007,-0.23762765526771545,-0.21390604972839355,0.6386935710906982
0210984a-415f-482e-9563-2b1034aa5764,39f0de63-6e96-42bf-9377-2259653f22df,1760000722479184055,-2.439499,-1.401901,1.939774,-0.000977,-0.634766,0.825684,0.2948424547881492,-37.31245741594103,84.83744274373478,0.6999972462654114,-0.2377970814704895,-0.21397890150547028,0.6384899020195007
0210984a-415f-482e-9563-2b1034aa5764,39f0de63-6e96-42bf-9377-2259653f22df,1760000722487203055,-2.317429,-1.646042,1.878738,-0.001953,-0.629883,0.82666,0.2924734133684371,-37.35124850341393,84.85602664534248,0.6998098492622375,-0.23798570036888123,-0.21424850821495056,0.638534665107727
0210984a-415f-482e-9563-2b1034aa5764,39f0de63-6e96-42bf-9377-2259653f22df,1760000722495220055,-1.888275,-1.586914,1.756668,-0.002441,-0.62793,0.823242,0.29060555894976386,-37.36670043643162,84.90076577040399,0.6995253562927246,-0.23798580467700958,-0.21443910896778107,0.6387823224067688
0210984a-415f-482e-9563-2b1034aa5764,39f0de63-6e96-42bf-9377-2259653f22df,1760000722503237055,-1.70517,-1.159668,1.695633,-0.021484,-0.620605,0.824707,0.291748574337961,-37.379625966607094,84.92555541075227,0.6993628144264221,-0.2380245476961136,-0.21455581486225128,0.6389066576957703
0210984a-415f-482e-9563-2b1034aa5764,39f0de63-6e96-42bf-9377-2259653f22df,1760000722511254055,-1.703262,-1.218796,1.024246,0.0,-0.62793,0.818848,0.28341159921348624,-37.394030200019166,84.94808638335589,0.6991920471191406,-0.23802362382411957,-0.21473395824432373,0.6390340328216553
0210984a-415f-482e-9563-2b1034aa5764,39f0de63-6e96-42bf-9377-2259653f22df,1760000722521916055,-1.399994,-0.427246,0.963211,-0.001953,-0.633789,0.816406,0.28336765181994034,-37.40819276439433,84.9821842634492,0.698972761631012,-0.23804570734500885,-0.2148841917514801,0.6392152309417725
0210984a-415f-482e-9563-2b1034aa5764,39f0de63-6e96-42bf-9377-2259653f22df,1760000722532578055,-1.277924,-0.183105,0.780106,0.007813,-0.617188,0.827637,0.2772168905856991,-37.41581296100516,84.95974635796746,0.6990707516670227,-0.23809990286827087,-0.21491767466068268,0.6390765905380249
0210984a-415f-482e-9563-2b1034aa5764,39f0de63-6e96-42bf-9377-2259653f22df,1760000722543240055,-1.157761,-0.242233,0.47493,0.009766,-0.624023,0.82959,0.27264175622475384,-37.412138810067525,84.9408005634697,0.6991753578186035,-0.23808754980564117,-0.21488569676876068,0.6389774680137634
0210984a-415f-482e-9563-2b1034aa5764,39f0de63-6e96-42bf-9377-2259653f22df,1760000722553886055,-1.399994,-0.240326,-0.013351,-0.003418,-0.620117,0.814453,0.2716064087378203,-37.41209220752179,84.94519390975422,0.6991490125656128,-0.23807325959205627,-0.2149008810520172,0.639006495475769
0210984a-415f-482e-9563-2b1034aa5764,39f0de63-6e96-42bf-9377-2259653f22df,1760000722564532055,-1.399994,-0.427246,-0.562668,0.011719,-0.615234,0.799316,0.2629973770441131,-37.421711233745526,84.93998862524442,0.6991421580314636,-0.23809359967708588,-0.2149963229894638,0.6389743685722351
0210984a-415f-482e-9563-2b1034aa5764,39f0de63-6e96-42bf-9377-2259653f22df,1760000722575178055,-1.522064,-0.488281,-0.623703,-0.000977,-0.628906,0.807617,0.24723367401953755,-37.436857603042235,84.92750167161573,0.6991510987281799,-0.23812143504619598,-0.21515114605426788,0.6389020681381226
0210984a-415f-482e-9563-2b1034aa5764,39f0de63-6e96-42bf-9377-2259653f22df,1760000722585865055,-2.256393,-0.425339,-0.623703,0.000488,-0.624023,0.812988,0.22698108624261998,-37.46961248199361,84.8971044103655,0.6992151737213135,-0.2382652461528778,-0.21539440751075745,0.6386963129043579
0210984a-415f-482e-9563-2b1034aa5764,39f0de63-6e96-42bf-9377-2259653f22df,1760000722596550055,-2.317429,0.001907,-0.928879,0.011719,-0.621094,0.80957,0.21201796206414408,-37.489399187500716,84.8790594468103,0.699246883392334,-0.23833635449409485,-0.21555861830711365,0.6385797262191772
0210984a-415f-482e-9563-2b1034aa5764,39f0de63-6e96-42bf-9377-2259653f22df,1760000722607235055,-2.559662,-0.183105,-1.111984,0.003906,-0.607422,0.797852,0.20179985111196827,-37.514449094891084,84.85952068257554,0.6992849111557007,-0.23846890032291412,-0.21572008728981018,0.6384339928627014
0210984a-415f-482e-9563-2b1034aa5764,39f0de63-6e96-42bf-9377-2259653f22df,1760000722615351055,-4.024506,-0.05722,-1.29509,0.015137,-0.613281,0.789062,0.19409215740666855,-37.54198817979957,84.85581457856382,0.6992342472076416,-0.23860080540180206,-0.21591302752494812,0.6383749842643738
0210984a-415f-482e-9563-2b1034aa5764,39f0de63-6e96-42bf-9377-2259653f22df,1760000722623468055,-4.878998,0.12207,-0.867844,-0.008301,-0.619629,0.803223,0.17973038460273263,-37.57932876912127,84.86633486099338,0.69907146692276,-0.23872855305671692,-0.2162308394908905,0.6383979320526123
0210984a-415f-482e-9563-2b1034aa5764,39f0de63-6e96-42bf-9377-2259653f22df,1760000722631585055,-5.735397,-0.059128,-0.867844,0.004395,-0.619141,0.789551,0.1754232239135307,-37.62149792787292,84.84854112520242,0.6990752816200256,-0.23899514973163605,-0.21645519137382507,0.6382179856300354
0210984a-415f-482e-9563-2b1034aa5764,39f0de63-6e96-42bf-9377-2259653f22df,1760000722639702055,-6.465912,-0.240326,-0.989914,-0.016602,-0.612305,0.791504,0.17110491813030715,-37.67696813814345,84.82952456774213,0.6990581750869751,-0.23934511840343475,-0.2167510837316513,0.6380051374435425
0210984a-415f-482e-9563-2b1034aa5764,39f0de63-6e96-42bf-9377-2259653f22df,1760000722650216055,-7.440567,-0.425339,-0.562668,-0.002441,-0.607422,0.788086,0.16927846059933901,-37.73506618683519,84.86707654294393,0.698725163936615,-0.23961786925792694,-0.2171645611524582,0.6381269097328186
0210984a-415f-482e-9563-2b1034aa5764,39f0de63-6e96-42bf-9377-2259653f22df,1760000722660730055,-8.602142,-0.488281,-0.440598,-0.015137,-0.617676,0.77832,0.16320015264991194,-37.80554329831113,84.89173007938372,0.6984300017356873,-0.2399664968252182,-0.21764610707759857,0.6381549835205078
0210984a-415f-482e-9563-2b1034aa5764,39f0de63-6e96-42bf-9377-2259653f22df,1760000722671244055,-10.007858,-0.486374,-0.501633,-0.011719,-0.611816,0.775879,0.1621692381622568,-37.88814335145519,84.8923299961437,0.6982528567314148,-0.2404625415802002,-0.21811407804489136,0.638002336025238
0210984a-415f-482e-9563-2b1034aa5764,39f0de63-6e96-42bf-9377-2259653f22df,1760000722681901055,-12.018204,-0.425339,-0.074387,-0.003906,-0.603027,0.760254,0.16631154404387566,-38.09883977501447,84.90842047421806,0.6977312564849854,-0.24173712730407715,-0.21929675340652466,0.6376857757568359
