section id,recording id,timestamp [ns],gyro x [deg/s],gyro y [deg/s],gyro z [deg/s],acceleration x [g],acceleration y [g],acceleration z [g],roll [deg],pitch [deg],yaw [deg],quaternion w,quaternion x,quaternion y,quaternion z
1623561c-f008-4531-86f8-a372810430ac,fed1223c-9041-4484-928e-e96c55bc8658,1761218854253217076,-0.450134,-2.216339,2.569199,0.007813,-0.594238,0.861816,0.825140992880347,-33.610288495785,129.3403236845182,0.41142866015434265,-0.1299200803041458,-0.25836607813835144,0.8643460869789124
1623561c-f008-4531-86f8-a372810430ac,fed1223c-9041-4484-928e-e96c55bc8658,1761218854261232076,-0.205994,-2.033234,2.691269,-0.008301,-0.576172,0.851562,0.819332152472949,-33.61682973390329,129.28222963660005,0.41184699535369873,-0.1300305426120758,-0.2583704888820648,0.8641288876533508
1623561c-f008-4531-86f8-a372810430ac,fed1223c-9041-4484-928e-e96c55bc8658,1761218854269247076,-0.144958,-2.094269,2.752304,-0.010742,-0.59668,0.858398,0.8157844436796972,-33.627563805093,129.23790807994038,0.4121621549129486,-0.1301419734954834,-0.25841403007507324,0.8639488220214844
1623561c-f008-4531-86f8-a372810430ac,fed1223c-9041-4484-928e-e96c55bc8658,1761218854277262076,0.221252,-1.911163,2.691269,-0.001465,-0.589355,0.861816,0.8102911345967931,-33.63636291482141,129.19075184127894,0.4124962091445923,-0.13023829460144043,-0.25844669342041016,0.8637650609016418
1623561c-f008-4531-86f8-a372810430ac,fed1223c-9041-4484-928e-e96c55bc8658,1761218854285261076,1.012802,-1.974106,2.386093,-0.007812,-0.598145,0.862793,0.8061553956823112,-33.63906867463995,129.14133380980223,0.4128565490245819,-0.1303282231092453,-0.25842583179473877,0.8635855913162231
1623561c-f008-4531-86f8-a372810430ac,fed1223c-9041-4484-928e-e96c55bc8658,1761218854293260076,1.441956,-1.544952,2.386093,-0.012695,-0.601562,0.875488,0.8016480559195563,-33.635573030175685,129.1028337383415,0.41314011812210083,-0.13036859035491943,-0.25837188959121704,0.8634600043296814
1623561c-f008-4531-86f8-a372810430ac,fed1223c-9041-4484-928e-e96c55bc8658,1761218854301259076,1.686096,-1.300812,2.141953,0.004395,-0.577148,0.872559,0.7935131165321104,-33.62191836391598,129.07998007330315,0.4133080840110779,-0.13031001389026642,-0.2582721412181854,0.8634182810783386
1623561c-f008-4531-86f8-a372810430ac,fed1223c-9041-4484-928e-e96c55bc8658,1761218854309258076,2.174377,-0.873566,2.141953,-0.010742,-0.59375,0.858887,0.7921804440892395,-33.610249540909486,128.97209044446768,0.4141298830509186,-0.13050127029418945,-0.2580660879611969,0.8630571961402893
1623561c-f008-4531-86f8-a372810430ac,fed1223c-9041-4484-928e-e96c55bc8658,1761218854317257076,2.540588,-0.934601,2.080917,-0.013184,-0.574707,0.862793,0.7958737241987566,-33.59253281353388,128.86014197872848,0.41499951481819153,-0.13071753084659576,-0.2577914595603943,0.8626887202262878
1623561c-f008-4531-86f8-a372810430ac,fed1223c-9041-4484-928e-e96c55bc8658,1761218854325256076,2.782822,-1.119614,2.386093,-0.008301,-0.582031,0.863769,0.7961829153624992,-33.57312112883817,128.755236022201,0.4158099591732025,-0.1308859884738922,-0.25752419233322144,0.8623526692390442
1623561c-f008-4531-86f8-a372810430ac,fed1223c-9041-4484-928e-e96c55bc8658,1761218854334400076,2.662659,-0.751495,2.325058,-0.01416,-0.57959,0.85791,0.8017528255368671,-33.552299941227176,128.61720120455064,0.41688257455825806,-0.13116289675235748,-0.25718915462493896,0.8618926405906677
1623561c-f008-4531-86f8-a372810430ac,fed1223c-9041-4484-928e-e96c55bc8658,1761218854343544076,2.723694,-1.239777,2.508163,-0.003906,-0.566895,0.871582,0.804888416936423,-33.528813916972474,128.47749149151278,0.4179645776748657,-0.13141502439975739,-0.25684070587158203,0.8614339828491211
1623561c-f008-4531-86f8-a372810430ac,fed1223c-9041-4484-928e-e96c55bc8658,1761218854352688076,2.845764,-0.812531,2.569199,-0.000977,-0.563965,0.864746,0.8071538275704143,-33.50333820025182,128.34686345919252,0.4189779460430145,-0.13163241744041443,-0.25649064779281616,0.8610126972198486
1623561c-f008-4531-86f8-a372810430ac,fed1223c-9041-4484-928e-e96c55bc8658,1761218854361832076,3.02887,-0.934601,2.691269,-0.004883,-0.564941,0.86084,0.81106053270163,-33.478274800890325,128.2087691737599,0.42005017399787903,-0.13187968730926514,-0.2561289072036743,0.8605599999427795
1623561c-f008-4531-86f8-a372810430ac,fed1223c-9041-4484-928e-e96c55bc8658,1761218854370976076,3.02887,-0.873566,3.05748,0.00293,-0.570312,0.867676,0.8123884323454248,-33.4517636164633,128.0595154088079,0.4212014079093933,-0.1321265548467636,-0.25575265288352966,0.8600711822509766
1623561c-f008-4531-86f8-a372810430ac,fed1223c-9041-4484-928e-e96c55bc8658,1761218854380120076,3.02887,-1.056671,3.240585,-0.002441,-0.571289,0.865723,0.820072124520783,-33.42656251180963,127.95766318209382,0.4220092296600342,-0.13231946527957916,-0.2554173469543457,0.8597451448440552
1623561c-f008-4531-86f8-a372810430ac,fed1223c-9041-4484-928e-e96c55bc8658,1761218854389264076,3.213882,-0.997543,3.423691,-0.006348,-0.574707,0.868164,0.8299378766576129,-33.40054284178047,127.87046655578412,0.4227125644683838,-0.13249264657497406,-0.2550846338272095,0.8594716787338257
1623561c-f008-4531-86f8-a372810430ac,fed1223c-9041-4484-928e-e96c55bc8658,1761218854398862076,3.393173,-0.688553,3.118515,-0.010742,-0.562012,0.87207,0.8395646585034838,-33.3714523087264,127.792595729267,0.42334842681884766,-0.13263162970542908,-0.2547403872013092,0.8592393398284912
1623561c-f008-4531-86f8-a372810430ac,fed1223c-9041-4484-928e-e96c55bc8658,1761218854408460076,3.087997,-0.688553,3.362656,-0.012207,-0.556152,0.854492,0.8490955919933079,-33.337940942689364,127.82343056275387,0.4231734275817871,-0.1325119137763977,-0.254489004611969,0.859418511390686
1623561c-f008-4531-86f8-a372810430ac,fed1223c-9041-4484-928e-e96c55bc8658,1761218854418058076,3.578186,-0.263214,3.484726,-0.005371,-0.567871,0.86084,0.8554789262404776,-33.30723460529508,127.85413053670754,0.4229893982410431,-0.13237930834293365,-0.25427010655403137,0.8595942854881287
1623561c-f008-4531-86f8-a372810430ac,fed1223c-9041-4484-928e-e96c55bc8658,1761218854427656076,3.881454,-0.265121,3.423691,-0.01123,-0.554199,0.879394,0.8673557821255129,-33.26738280630225,127.8863899280295,0.4228152334690094,-0.13225114345550537,-0.2539638876914978,0.8597902059555054
1623561c-f008-4531-86f8-a372810430ac,fed1223c-9041-4484-928e-e96c55bc8658,1761218854437254076,3.94249,-0.509262,3.667831,-0.007324,-0.545898,0.872559,0.880296072243815,-33.226108349687074,127.79989438938692,0.42353570461273193,-0.13238872587680817,-0.2535058856010437,0.8595495820045471
1623561c-f008-4531-86f8-a372810430ac,fed1223c-9041-4484-928e-e96c55bc8658,1761218854446845076,4.06456,-0.509262,3.606796,-0.008301,-0.545898,0.871582,0.8950792899070374,-33.182170889318456,127.59925157205873,0.4251185357570648,-0.1327817291021347,-0.2528887987136841,0.858889102935791
1623561c-f008-4531-86f8-a372810430ac,fed1223c-9041-4484-928e-e96c55bc8658,1761218854456436076,3.944397,-0.263214,3.423691,-0.008789,-0.553223,0.877441,0.9078759765044196,-33.138288990630734,127.63449737861356,0.4249281883239746,-0.13263870775699615,-0.25255244970321655,0.859104335308075
1623561c-f008-4531-86f8-a372810430ac,fed1223c-9041-4484-928e-e96c55bc8658,1761218854466027076,4.06456,-0.631332,3.423691,-0.013672,-0.548828,0.874512,0.9233319063336162,-33.092577338909756,127.59609993057478,0.4252975285053253,-0.13267119228839874,-0.252107173204422,0.8590472936630249
1623561c-f008-4531-86f8-a372810430ac,fed1223c-9041-4484-928e-e96c55bc8658,1761218854475618076,4.249573,-0.263214,3.423691,-0.007812,-0.540039,0.862793,0.9308992226484032,-33.049822885611896,127.49852804061177,0.4260898232460022,-0.13278508186340332,-0.2516448199748993,0.8587726354598999
1623561c-f008-4531-86f8-a372810430ac,fed1223c-9041-4484-928e-e96c55bc8658,1761218854485209076,4.06456,-0.688553,3.362656,0.003418,-0.544922,0.866211,0.9413844368454416,-33.005294224837264,127.53086315563422,0.4259165823459625,-0.13262878358364105,-0.25130873918533325,0.8589811325073242
1623561c-f008-4531-86f8-a372810430ac,fed1223c-9041-4484-928e-e96c55bc8658,1761218854494860076,3.881454,-0.383377,3.423691,0.004395,-0.520508,0.864746,0.9618002149270577,-32.91125071592884,127.49602977016437,0.4263194799423218,-0.13251185417175293,-0.2504858374595642,0.8590396642684937
1623561c-f008-4531-86f8-a372810430ac,fed1223c-9041-4484-928e-e96c55bc8658,1761218854504510076,4.127502,0.041962,3.362656,-0.010742,-0.534668,0.862793,0.973605209359297,-32.8675047203948,127.42826056623677,0.4268983006477356,-0.13258711993694305,-0.25003477931022644,0.8588719964027405
1623561c-f008-4531-86f8-a372810430ac,fed1223c-9041-4484-928e-e96c55bc8658,1761218854514160076,3.519058,-0.509262,3.30162,-0.00293,-0.530762,0.857422,0.9811488461664218,-32.83108566746208,127.45785135444406,0.4267303943634033,-0.1324448585510254,-0.2497672289609909,0.85905522108078
1623561c-f008-4531-86f8-a372810430ac,fed1223c-9041-4484-928e-e96c55bc8658,1761218854523810076,3.02887,-0.44632,3.05748,-0.01416,-0.530273,0.85791,0.990172963658117,-32.79230030165946,127.25315838544707,0.4283238351345062,-0.1328149139881134,-0.24920527637004852,0.8583679795265198
1623561c-f008-4531-86f8-a372810430ac,fed1223c-9041-4484-928e-e96c55bc8658,1761218854533460076,2.725601,-0.509262,3.17955,-0.003906,-0.523438,0.859863,0.9978911079701765,-32.756982612481885,127.06531095620055,0.42978358268737793,-0.1331499218940735,-0.24869325757026672,0.8577346801757812
1623561c-f008-4531-86f8-a372810430ac,fed1223c-9041-4484-928e-e96c55bc8658,1761218854544033076,2.845764,-0.873566,2.508163,-0.000977,-0.529785,0.866211,1.0039248938521792,-32.72033566643012,126.89686669237855,0.4310949146747589,-0.13342402875423431,-0.24819974601268768,0.8571767807006836
1623561c-f008-4531-86f8-a372810430ac,fed1223c-9041-4484-928e-e96c55bc8658,1761218854554605076,2.845764,-0.507355,2.264023,-0.004395,-0.530273,0.874512,1.003998050258187,-32.68228298990306,126.69049783352948,0.4326775074005127,-0.13372913002967834,-0.2476736456155777,0.8564837574958801
1623561c-f008-4531-86f8-a372810430ac,fed1223c-9041-4484-928e-e96c55bc8658,1761218854565177076,2.416611,-0.631332,2.019882,-0.009277,-0.533203,0.869629,1.0061703177531809,-32.64914821441582,126.51184779046172,0.43405136466026306,-0.13400709629058838,-0.24720852077007294,0.8558793067932129
1623561c-f008-4531-86f8-a372810430ac,fed1223c-9041-4484-928e-e96c55bc8658,1761218854573194076,1.928329,-0.814438,1.775742,-0.015625,-0.53125,0.860352,1.0099789808758415,-32.59638049945928,126.20827102869359,0.4363804757595062,-0.13449104130268097,-0.2464434951543808,0.854839026927948
1623561c-f008-4531-86f8-a372810430ac,fed1223c-9041-4484-928e-e96c55bc8658,1761218854581212076,1.319885,-0.69046,1.775742,-0.020996,-0.541016,0.864258,1.017408010945565,-32.57865244094155,125.98653912618937,0.4380682408809662,-0.13495592772960663,-0.24602192640304565,0.8540235757827759
1623561c-f008-4531-86f8-a372810430ac,fed1223c-9041-4484-928e-e96c55bc8658,1761218854589230076,1.256943,-0.688553,1.592636,0.007813,-0.538574,0.870605,1.0123759583803322,-32.56343936719961,125.87505632394046,0.4389040172100067,-0.13510003685951233,-0.24579615890979767,0.853636622428894
1623561c-f008-4531-86f8-a372810430ac,fed1223c-9041-4484-928e-e96c55bc8658,1761218854597248076,0.646591,-0.997543,1.470566,-0.003418,-0.524414,0.876465,1.014612441277345,-32.54479723460212,125.65971814121602,0.44053176045417786,-0.13550738990306854,-0.24539414048194885,0.8528488874435425
1623561c-f008-4531-86f8-a372810430ac,fed1223c-9041-4484-928e-e96c55bc8658,1761218854608041076,0.526428,-0.56839,1.409531,-0.023438,-0.533203,0.87793,1.0174941572198901,-32.53016110405595,125.46730422430475,0.44198477268218994,-0.13588479161262512,-0.24504601955413818,0.8521368503570557
1623561c-f008-4531-86f8-a372810430ac,fed1223c-9041-4484-928e-e96c55bc8658,1761218854618834076,0.221252,-0.202179,1.28746,-0.008789,-0.541016,0.881348,1.01875217500264,-32.51971772289414,125.2151727331815,0.4438723623752594,-0.13639292120933533,-0.2446637898683548,0.8511838316917419
1623561c-f008-4531-86f8-a372810430ac,fed1223c-9041-4484-928e-e96c55bc8658,1761218854629627076,0.343323,-0.202179,1.28746,-0.00293,-0.536621,0.880859,1.0161162572539482,-32.507883769247165,124.98642893014114,0.4455775320529938,-0.13681592047214508,-0.24431324005126953,0.8503252863883972
1623561c-f008-4531-86f8-a372810430ac,fed1223c-9041-4484-928e-e96c55bc8658,1761218854640153076,0.404358,-0.385284,1.348495,-0.004395,-0.53125,0.885742,1.0163136509249475,-32.49327446281953,124.81326656197099,0.44687795639038086,-0.137130007147789,-0.24399682879447937,0.8496828675270081
1623561c-f008-4531-86f8-a372810430ac,fed1223c-9041-4484-928e-e96c55bc8658,1761218854650677076,0.587463,-0.385284,1.653671,-0.018066,-0.522461,0.872559,1.0191594082996869,-32.47736316045437,124.61456638455842,0.4483736753463745,-0.13751232624053955,-0.2436293512582779,0.8489382266998291
1623561c-f008-4531-86f8-a372810430ac,fed1223c-9041-4484-928e-e96c55bc8658,1761218854661201076,0.404358,-0.385284,1.470566,-0.01709,-0.522949,0.871094,1.0210390108839478,-32.45999484949169,124.37543605746623,0.45016688108444214,-0.13796678185462952,-0.24320559203624725,0.848036527633667
1623561c-f008-4531-86f8-a372810430ac,fed1223c-9041-4484-928e-e96c55bc8658,1761218854671886076,0.463486,-0.020981,1.653671,-0.008789,-0.516113,0.880371,1.0326181230282543,-32.42160889820154,124.00203041750376,0.452993780374527,-0.13869385421276093,-0.24242457747459412,0.8466350436210632
1623561c-f008-4531-86f8-a372810430ac,fed1223c-9041-4484-928e-e96c55bc8658,1761218854682573076,0.343323,0.286102,1.592636,-0.004883,-0.512695,0.858887,1.0411208602727964,-32.40663862061492,123.81405035192364,0.4544161558151245,-0.13909533619880676,-0.24205219745635986,0.8459131717681885
1623561c-f008-4531-86f8-a372810430ac,fed1223c-9041-4484-928e-e96c55bc8658,1761218854693260076,0.038147,1.140594,1.16539,-0.007324,-0.522461,0.873047,1.0522973662651782,-32.39698095766488,123.56694146613259,0.45627328753471375,-0.13966131210327148,-0.2416357696056366,0.8449387550354004
1623561c-f008-4531-86f8-a372810430ac,fed1223c-9041-4484-928e-e96c55bc8658,1761218854703917076,-0.570297,1.626968,0.921249,-0.020508,-0.519043,0.873047,1.0718402153590603,-32.388716931318264,123.34383572164747,0.457967609167099,-0.14024274051189423,-0.2412242442369461,0.844042956829071
1623561c-f008-4531-86f8-a372810430ac,fed1223c-9041-4484-928e-e96c55bc8658,1761218854714573076,-1.182556,1.873016,0.982285,-0.012207,-0.526367,0.867676,1.0895597169522102,-32.383768058604254,123.159455620487,0.4593677520751953,-0.1407414674758911,-0.2408907264471054,0.8432939648628235
1623561c-f008-4531-86f8-a372810430ac,fed1223c-9041-4484-928e-e96c55bc8658,1761218854725229076,-1.121521,1.873016,0.616074,-0.018066,-0.528809,0.861328,1.1096866160711232,-32.38576603126265,122.96590682453662,0.46083152294158936,-0.14130406081676483,-0.24058645963668823,0.8424877524375916
1623561c-f008-4531-86f8-a372810430ac,fed1223c-9041-4484-928e-e96c55bc8658,1761218854733235076,-1.609802,1.811981,0.432968,-0.026367,-0.529297,0.879883,1.1540705893255836,-32.39206202128714,122.67022822593458,0.4630899727344513,-0.1422753930091858,-0.2400880753993988,0.841227114200592
1623561c-f008-4531-86f8-a372810430ac,fed1223c-9041-4484-928e-e96c55bc8658,1761218854741242076,-2.161026,1.935959,0.555038,-0.028809,-0.531738,0.855469,1.1803539809445056,-32.406640148648535,122.5438029887699,0.4640568494796753,-0.14279140532016754,-0.23993182182312012,0.840651273727417
1623561c-f008-4531-86f8-a372810430ac,fed1223c-9041-4484-928e-e96c55bc8658,1761218854749249076,-2.6474,1.873016,0.310898,-0.02002,-0.54541,0.869629,1.201920813121368,-32.424591114922265,122.3284716723896,0.46566110849380493,-0.14347220957279205,-0.23970742523670197,0.8397117257118225
1623561c-f008-4531-86f8-a372810430ac,fed1223c-9041-4484-928e-e96c55bc8658,1761218854757256076,-3.137589,1.626968,0.432968,-0.027344,-0.541016,0.858398,1.2247374026570585,-32.44988873144683,122.18843199130667,0.4667068123817444,-0.1440339982509613,-0.23962485790252686,0.8390583395957947
1623561c-f008-4531-86f8-a372810430ac,fed1223c-9041-4484-928e-e96c55bc8658,1761218854767918076,-3.562927,1.567841,0.249863,-0.032715,-0.53125,0.851562,1.2438085624309538,-32.47519470858043,122.03139915026604,0.4678681492805481,-0.1446039378643036,-0.23953518271446228,0.8383387923240662
1623561c-f008-4531-86f8-a372810430ac,fed1223c-9041-4484-928e-e96c55bc8658,1761218854778580076,-3.990173,1.20163,0.555038,-0.033691,-0.539551,0.852051,1.265531273665869,-32.50921122128458,121.84336993097142,0.4692508578300476,-0.1452932506799698,-0.2394581288099289,0.8374683856964111
1623561c-f008-4531-86f8-a372810430ac,fed1223c-9041-4484-928e-e96c55bc8658,1761218854789242076,-4.419327,0.955582,0.799179,-0.032227,-0.540527,0.854492,1.2846083428928123,-32.5485579833934,121.64621705224594,0.4706871807575226,-0.14600405097007751,-0.23941774666309357,0.8365497589111328
1623561c-f008-4531-86f8-a372810430ac,fed1223c-9041-4484-928e-e96c55bc8658,1761218854799901076,-5.332947,1.20163,0.860214,-0.033203,-0.545898,0.85791,1.303231935834572,-32.59335666764505,121.43359750925718,0.4722275137901306,-0.1467662900686264,-0.2393975704908371,0.8355534672737122
1623561c-f008-4531-86f8-a372810430ac,fed1223c-9041-4484-928e-e96c55bc8658,1761218854810561076,-5.7621,1.016617,1.28746,-0.024902,-0.552246,0.849121,1.3245057563104279,-32.64181237904479,121.25827689611815,0.47349557280540466,-0.14748521149158478,-0.23943915963172913,0.834696888923645
1623561c-f008-4531-86f8-a372810430ac,fed1223c-9041-4484-928e-e96c55bc8658,1761218854821221076,-6.433487,0.776291,1.531601,-0.032715,-0.556152,0.848633,1.3491791438226224,-32.69544800321114,121.08119344299205,0.4747762680053711,-0.1482541561126709,-0.23950055241584778,0.8338150978088379
1623561c-f008-4531-86f8-a372810430ac,fed1223c-9041-4484-928e-e96c55bc8658,1761218854829244076,-6.980896,0.896454,1.775742,-0.017578,-0.561523,0.837402,1.3918014223900006,-32.81879535262249,120.82032913749065,0.47662314772605896,-0.14961540699005127,-0.23988491296768188,0.8324066400527954
1623561c-f008-4531-86f8-a372810430ac,fed1223c-9041-4484-928e-e96c55bc8658,1761218854837266076,-7.286072,0.102997,2.141953,-0.036133,-0.549805,0.839844,1.411132878205688,-32.886326311511226,120.71367929585524,0.4773617386817932,-0.15025673806667328,-0.24015729129314423,0.8317890763282776
1623561c-f008-4531-86f8-a372810430ac,fed1223c-9041-4484-928e-e96c55bc8658,1761218854845288076,-7.58934,0.162125,2.386093,-0.022949,-0.561035,0.844238,1.4325343095127443,-32.95533962466059,120.53065478042703,0.4786560833454132,-0.1510799080133438,-0.24033012986183167,0.8308457136154175
1623561c-f008-4531-86f8-a372810430ac,fed1223c-9041-4484-928e-e96c55bc8658,1761218854853310076,-7.713318,-0.080109,2.752304,-0.018066,-0.570312,0.846191,1.4474275786300224,-33.02953767150314,120.35228884154704,0.47989532351493835,-0.15186843276023865,-0.2405720353126526,0.8299165368080139
1623561c-f008-4531-86f8-a372810430ac,fed1223c-9041-4484-928e-e96c55bc8658,1761218854863960076,-7.898331,-0.020981,2.691269,-0.036621,-0.566895,0.851562,1.471476241672294,-33.10324074344197,120.19186357670534,0.48102277517318726,-0.15268445014953613,-0.2407938539981842,0.829049289226532
1623561c-f008-4531-86f8-a372810430ac,fed1223c-9041-4484-928e-e96c55bc8658,1761218854874610076,-8.201599,-0.080109,3.05748,-0.033203,-0.574219,0.847168,1.4920676253722416,-33.18301462750013,120.01491538059317,0.48225387930870056,-0.15353620052337646,-0.24105025827884674,0.8281017541885376
1623561c-f008-4531-86f8-a372810430ac,fed1223c-9041-4484-928e-e96c55bc8658,1761218854885260076,-8.203506,-0.326157,3.30162,-0.041016,-0.580566,0.856445,1.5133002485006728,-33.261633781736535,119.84758957013804,0.4834164083003998,-0.1543685495853424,-0.24130640923976898,0.8271940350532532
1623561c-f008-4531-86f8-a372810430ac,fed1223c-9041-4484-928e-e96c55bc8658,1761218854895934076,-7.898331,-0.326157,3.362656,-0.022461,-0.585938,0.855469,1.5305531249128057,-33.33470559963087,119.68856923602486,0.4845154285430908,-0.1551324725151062,-0.24154843389987946,0.8263370394706726
1623561c-f008-4531-86f8-a372810430ac,fed1223c-9041-4484-928e-e96c55bc8658,1761218854906611076,-7.408142,-0.080109,3.484726,-0.014648,-0.569824,0.871582,1.5495476182335473,-33.40362998321667,119.58689921429703,0.48520827293395996,-0.15577146410942078,-0.24182932078838348,0.8257278800010681
1623561c-f008-4531-86f8-a372810430ac,fed1223c-9041-4484-928e-e96c55bc8658,1761218854917288076,-7.226944,0.162125,3.728867,-0.015625,-0.589844,0.856445,1.5627521488060547,-33.47738775200387,119.46555423202824,0.4860241711139679,-0.15643104910850525,-0.24214185774326324,0.8250314593315125
1623561c-f008-4531-86f8-a372810430ac,fed1223c-9041-4484-928e-e96c55bc8658,1761218854925297076,-6.55365,-0.202179,3.728867,-0.012207,-0.587402,0.869629,1.6023451825959762,-33.60486220428215,119.19530523565223,0.4879024922847748,-0.1578214466571808,-0.24252448976039886,0.8235442042350769
1623561c-f008-4531-86f8-a372810430ac,fed1223c-9041-4484-928e-e96c55bc8658,1761218854933306076,-5.821228,0.713348,3.973007,-0.009277,-0.59082,0.868652,1.6226378623379443,-33.66011566305022,119.11867681319127,0.4884309768676758,-0.15836147964000702,-0.24273128807544708,0.823066234588623
1623561c-f008-4531-86f8-a372810430ac,fed1223c-9041-4484-928e-e96c55bc8658,1761218854941315076,-5.273819,1.264572,4.095078,-0.001953,-0.594238,0.887207,1.650069905754085,-33.7052931076417,118.93143765590874,0.48977988958358765,-0.15914501249790192,-0.24268077313899994,0.8221278190612793
1623561c-f008-4531-86f8-a372810430ac,fed1223c-9041-4484-928e-e96c55bc8658,1761218854949324076,-4.478455,2.056122,3.789902,-0.004883,-0.586914,0.891113,1.6834539199995509,-33.741699056390566,118.73571027148546,0.4912109076976776,-0.1599522978067398,-0.2425277680158615,0.8211619257926941
1623561c-f008-4531-86f8-a372810430ac,fed1223c-9041-4484-928e-e96c55bc8658,1761218854959954076,-3.929138,2.849579,3.362656,-0.004395,-0.586426,0.868652,1.7207985834551138,-33.77470234949891,118.54718199002416,0.4926010072231293,-0.16075816750526428,-0.2423412799835205,0.8202263116836548
1623561c-f008-4531-86f8-a372810430ac,fed1223c-9041-4484-928e-e96c55bc8658,1761218854970584076,-2.76947,3.154755,3.30162,-0.015137,-0.591797,0.875488,1.7599957147885648,-33.79936307139847,118.41029663566664,0.4936339557170868,-0.16143247485160828,-0.24215757846832275,0.8195268511772156
1623561c-f008-4531-86f8-a372810430ac,fed1223c-9041-4484-928e-e96c55bc8658,1761218854981214076,-1.977921,3.274918,3.05748,-0.005859,-0.59082,0.875,1.7958449254714688,-33.81352024891029,118.2502477777268,0.4948369264602661,-0.1620868742465973,-0.24187880754470825,0.8187541365623474
1623561c-f008-4531-86f8-a372810430ac,fed1223c-9041-4484-928e-e96c55bc8658,1761218854991906076,-0.87738,3.032684,1.958847,-0.001953,-0.591309,0.861816,1.8290145407987384,-33.827764167654244,118.04624020115436,0.49634671211242676,-0.1628146916627884,-0.24154844880104065,0.8177927732467651
1623561c-f008-4531-86f8-a372810430ac,fed1223c-9041-4484-928e-e96c55bc8658,1761218855002600076,-0.513077,2.969742,1.653671,-0.01123,-0.584961,0.85791,1.8576427332378742,-33.83739351822358,117.88043239553856,0.4975782632827759,-0.1634092777967453,-0.24125736951828003,0.8170113563537598
1623561c-f008-4531-86f8-a372810430ac,fed1223c-9041-4484-928e-e96c55bc8658,1761218855013294076,0.038147,2.788544,1.04332,-0.012207,-0.591309,0.867676,1.8846727646399029,-33.841136157496635,117.77698426993447,0.4983680248260498,-0.16383564472198486,-0.24101904034614563,0.8165147304534912
1623561c-f008-4531-86f8-a372810430ac,fed1223c-9041-4484-928e-e96c55bc8658,1761218855023951076,0.28038,2.176285,0.982285,-0.018555,-0.585938,0.854004,1.9223557442047345,-33.840982899422016,117.43674199174373,0.5008694529533386,-0.1648178994655609,-0.24036572873592377,0.8149775862693787
1623561c-f008-4531-86f8-a372810430ac,fed1223c-9041-4484-928e-e96c55bc8658,1761218855034608076,-0.207901,2.298355,0.371933,-0.018066,-0.561035,0.845215,1.937217256293644,-33.84307432531609,117.32219547376431,0.5017125010490417,-0.1651727259159088,-0.24015074968338013,0.8144503831863403
1623561c-f008-4531-86f8-a372810430ac,fed1223c-9041-4484-928e-e96c55bc8658,1761218855045265076,0.099182,1.873016,-0.116348,-0.028809,-0.569824,0.846191,1.9480602655212877,-33.843332181125874,117.14567850781866,0.502988874912262,-0.1656205654144287,-0.23985028266906738,0.8136603236198425
1623561c-f008-4531-86f8-a372810430ac,fed1223c-9041-4484-928e-e96c55bc8658,1761218855053267076,-0.144958,1.018524,-0.543594,-0.02002,-0.571289,0.843262,1.948964537725559,-33.84398673777234,116.9615200510409,0.5042969584465027,-0.16601507365703583,-0.23958450555801392,0.8128480911254883
1623561c-f008-4531-86f8-a372810430ac,fed1223c-9041-4484-928e-e96c55bc8658,1761218855061268076,-1.243591,1.079559,-0.7267,-0.032227,-0.561035,0.844238,1.9529396044518146,-33.84622581127097,116.77568925928489,0.5056200623512268,-0.16644126176834106,-0.23931339383125305,0.8120184540748596
1623561c-f008-4531-86f8-a372810430ac,fed1223c-9041-4484-928e-e96c55bc8658,1761218855069269076,-1.365662,1.079559,-0.787735,-0.025879,-0.564941,0.849609,1.954280802955451,-33.8510673081822,116.59123096329935,0.5069234371185303,-0.1668568253517151,-0.2390737235546112,0.8111907243728638
1623561c-f008-4531-86f8-a372810430ac,fed1223c-9041-4484-928e-e96c55bc8658,1761218855077270076,-1.489639,0.833511,-0.421524,-0.02832,-0.55957,0.84668,1.9594864910835164,-33.858727724769096,116.40779154714052,0.5082228779792786,-0.16730955243110657,-0.23883774876594543,0.8103534579277039
1623561c-f008-4531-86f8-a372810430ac,fed1223c-9041-4484-928e-e96c55bc8658,1761218855088085076,-1.85585,0.528336,-0.360489,-0.029297,-0.574707,0.853027,1.965538213239517,-33.87319389199996,116.217645128746,0.5095617771148682,-0.16781166195869446,-0.23863574862480164,0.8094677925109863
1623561c-f008-4531-86f8-a372810430ac,fed1223c-9041-4484-928e-e96c55bc8658,1761218855098900076,-1.976013,0.591278,-0.116348,-0.03418,-0.564941,0.853516,1.9718568245066554,-33.88636617412171,116.06396864034532,0.5106438994407654,-0.16823385655879974,-0.23847590386867523,0.8087450265884399
1623561c-f008-4531-86f8-a372810430ac,fed1223c-9041-4484-928e-e96c55bc8658,1761218855109715076,-2.523422,0.650406,0.127792,-0.030762,-0.567871,0.851562,1.980568640316867,-33.90516678345556,115.96452508767148,0.5113406181335449,-0.1685847043991089,-0.23842443525791168,0.8082467317581177
1623561c-f008-4531-86f8-a372810430ac,fed1223c-9041-4484-928e-e96c55bc8658,1761218855120231076,-2.832413,0.4673,0.677109,-0.035645,-0.578125,0.848144,2.003774074235432,-33.95010230283838,115.6887178639547,0.5132773518562317,-0.16951940953731537,-0.2382325977087021,0.8068789839744568
1623561c-f008-4531-86f8-a372810430ac,fed1223c-9041-4484-928e-e96c55bc8658,1761218855130745076,-2.52533,-0.141144,0.921249,-0.032227,-0.569824,0.848144,2.009148227557823,-33.97085528389252,115.57608599231197,0.5140557289123535,-0.16988283395767212,-0.23818877339363098,0.8063197731971741
1623561c-f008-4531-86f8-a372810430ac,fed1223c-9041-4484-928e-e96c55bc8658,1761218855141259076,-2.952576,-0.385284,1.531601,-0.052246,-0.578613,0.855469,2.021337844140786,-33.99513143251101,115.45391358030838,0.5149103999137878,-0.17032966017723083,-0.23812460899353027,0.805698812007904
1623561c-f008-4531-86f8-a372810430ac,fed1223c-9041-4484-928e-e96c55bc8658,1761218855151932076,-3.440857,-0.56839,1.775742,-0.042969,-0.567871,0.859863,2.029410574014721,-34.01928950132441,115.30460441736842,0.5159465670585632,-0.17080344259738922,-0.23803700506687164,0.8049611449241638
1623561c-f008-4531-86f8-a372810430ac,fed1223c-9041-4484-928e-e96c55bc8658,1761218855162605076,-3.62587,-1.119614,1.958847,-0.035156,-0.573242,0.852051,2.0350508845900417,-34.04914049395551,115.15414733189243,0.5169776082038879,-0.17128783464431763,-0.23799805343151093,0.8042078018188477
1623561c-f008-4531-86f8-a372810430ac,fed1223c-9041-4484-928e-e96c55bc8658,1761218855173278076,-3.501892,-1.056671,2.264023,-0.03418,-0.564941,0.851562,2.042353418288922,-34.07694952977923,115.01737675207549,0.5179175734519958,-0.17174655199050903,-0.23795680701732635,0.8035170435905457
1623561c-f008-4531-86f8-a372810430ac,fed1223c-9041-4484-928e-e96c55bc8658,1761218855183940076,-3.68309,-0.997543,2.386093,-0.032715,-0.575684,0.866699,2.051156319299374,-34.13103365643145,114.7554840532093,0.5197030901908875,-0.17259274423122406,-0.23790507018566132,0.8021969795227051
1623561c-f008-4531-86f8-a372810430ac,fed1223c-9041-4484-928e-e96c55bc8658,1761218855194605076,-3.746033,-1.117706,2.325058,-0.025879,-0.573242,0.849121,2.0536434249780653,-34.16253372835788,114.64527663533866,0.5204399228096008,-0.17297951877117157,-0.23794960975646973,0.8016225099563599
1623561c-f008-4531-86f8-a372810430ac,fed1223c-9041-4484-928e-e96c55bc8658,1761218855205270076,-3.501892,-1.117706,1.775742,-0.019043,-0.572266,0.850586,2.052466243744311,-34.19176517102452,114.58100655014333,0.5208501815795898,-0.17323534190654755,-0.2380637675523758,0.8012667894363403
1623561c-f008-4531-86f8-a372810430ac,fed1223c-9041-4484-928e-e96c55bc8658,1761218855213272076,-4.112244,-0.873566,1.470566,-0.021973,-0.572754,0.848633,2.0479497094662564,-34.22305227587447,114.48288978849138,0.5214871764183044,-0.17354755103588104,-0.23815611004829407,0.8007572293281555
1623561c-f008-4531-86f8-a372810430ac,fed1223c-9041-4484-928e-e96c55bc8658,1761218855221274076,-4.173279,-1.117706,1.04332,-0.038574,-0.576172,0.84375,2.05021413701751,-34.25718681069829,114.3434392948987,0.522422730922699,-0.17400607466697693,-0.2381744533777237,0.8000420331954956
1623561c-f008-4531-86f8-a372810430ac,fed1223c-9041-4484-928e-e96c55bc8658,1761218855229276076,-4.234314,-0.934601,1.348495,-0.021484,-0.586426,0.847168,2.0452469642781756,-34.296493604543606,114.19376503214221,0.523406982421875,-0.17445892095565796,-0.23824581503868103,0.7992783784866333
1623561c-f008-4531-86f8-a372810430ac,fed1223c-9041-4484-928e-e96c55bc8658,1761218855237278076,-4.356384,-1.056671,1.16539,-0.024414,-0.571777,0.857422,2.0396554202580424,-34.32984866172853,114.03986292511465,0.5244258046150208,-0.17488989233970642,-0.23827099800109863,0.7985084056854248
1623561c-f008-4531-86f8-a372810430ac,fed1223c-9041-4484-928e-e96c55bc8658,1761218855247960076,-4.234314,-0.873566,1.104355,-0.025879,-0.583984,0.858398,2.035787431074201,-34.365121171047555,113.88112995503138,0.525478184223175,-0.17535191774368286,-0.2382935732603073,0.7977080345153809
1623561c-f008-4531-86f8-a372810430ac,fed1223c-9041-4484-928e-e96c55bc8658,1761218855258642076,-4.114151,-0.997543,1.16539,-0.026367,-0.582031,0.856934,2.0317536517136237,-34.40065122397261,113.70161602928218,0.5266731381416321,-0.17585758864879608,-0.23828598856925964,0.7968102693557739
1623561c-f008-4531-86f8-a372810430ac,fed1223c-9041-4484-928e-e96c55bc8658,1761218855269324076,-3.931046,-1.302719,1.226425,-0.035645,-0.584961,0.873535,2.031496069372835,-34.43230396736109,113.54333839581759,0.5277318358421326,-0.1763281375169754,-0.2382655292749405,0.7960114479064941
1623561c-f008-4531-86f8-a372810430ac,fed1223c-9041-4484-928e-e96c55bc8658,1761218855279973076,-3.501892,-1.056671,0.677109,-0.030273,-0.572754,0.867676,2.019674729990046,-34.48669999956977,113.29280352994465,0.5293757915496826,-0.17701387405395508,-0.23831410706043243,0.7947519421577454
1623561c-f008-4531-86f8-a372810430ac,fed1223c-9041-4484-928e-e96c55bc8658,1761218855290624076,-3.379822,-1.117706,0.921249,-0.037598,-0.574219,0.858398,2.0127178685942257,-34.507884562891036,113.17225252270592,0.5301695466041565,-0.1773127019405365,-0.23830783367156982,0.7941578030586243
1623561c-f008-4531-86f8-a372810430ac,fed1223c-9041-4484-928e-e96c55bc8658,1761218855301275076,-2.649307,-1.176834,1.04332,-0.031738,-0.576172,0.85791,2.0077251537654197,-34.52726543201848,113.10752894168158,0.5305823683738708,-0.17750099301338196,-0.2383660078048706,0.7938224077224731
1623561c-f008-4531-86f8-a372810430ac,fed1223c-9041-4484-928e-e96c55bc8658,1761218855309279076,-2.283096,-0.997543,0.616074,-0.021973,-0.578125,0.844727,2.001853103588778,-34.54574003303345,113.00225844937066,0.5312750339508057,-0.17776352167129517,-0.23835889995098114,0.7933022975921631
1623561c-f008-4531-86f8-a372810430ac,fed1223c-9041-4484-928e-e96c55bc8658,1761218855317286076,-2.099991,-0.997543,0.738144,-0.019531,-0.584473,0.853027,1.9933787441866901,-34.56565758637891,112.83167932268375,0.5324113368988037,-0.17815014719963074,-0.23827199637889862,0.7924807667732239
1623561c-f008-4531-86f8-a372810430ac,fed1223c-9041-4484-928e-e96c55bc8658,1761218855325293076,-2.283096,-0.814438,0.432968,-0.025391,-0.584473,0.835938,1.9901077252849713,-34.58812332587636,112.67445013519904,0.5334618091583252,-0.17855721712112427,-0.2381989061832428,0.7917042970657349
1623561c-f008-4531-86f8-a372810430ac,fed1223c-9041-4484-928e-e96c55bc8658,1761218855333300076,-2.403259,-1.056671,0.371933,-0.036133,-0.581543,0.85498,1.9875669805833651,-34.60674539804579,112.52862100935523,0.5344390273094177,-0.17892812192440033,-0.23811280727386475,0.7909870743751526
1623561c-f008-4531-86f8-a372810430ac,fed1223c-9041-4484-928e-e96c55bc8658,1761218855341293076,-2.52533,-0.751495,0.555038,-0.01709,-0.580566,0.853027,1.976911500220776,-34.62745040579059,112.39597445385517,0.5353047251701355,-0.17922531068325043,-0.23809914290905,0.7903382778167725
1623561c-f008-4531-86f8-a372810430ac,fed1223c-9041-4484-928e-e96c55bc8658,1761218855349286076,-2.586365,-1.239777,0.371933,-0.027344,-0.589355,0.834473,1.9705233949994594,-34.65137530058068,112.26732265297689,0.5361466407775879,-0.1795586347579956,-0.23809373378753662,0.7896933555603027
1623561c-f008-4531-86f8-a372810430ac,fed1223c-9041-4484-928e-e96c55bc8658,1761218855357279076,-2.52533,-1.117706,1.104355,-0.020508,-0.576172,0.861328,1.9598836285737713,-34.66694084337599,112.1367854512903,0.5370030403137207,-0.17982827126979828,-0.23804685473442078,0.7890639901161194
1623561c-f008-4531-86f8-a372810430ac,fed1223c-9041-4484-928e-e96c55bc8658,1761218855365272076,-2.161026,-0.631332,1.226425,-0.019531,-0.57959,0.860352,1.9507762035365492,-34.68307044448711,112.10509692177266,0.5371807813644409,-0.17990581691265106,-0.2381516546010971,0.7888936996459961
1623561c-f008-4531-86f8-a372810430ac,fed1223c-9041-4484-928e-e96c55bc8658,1761218855375926076,-2.098083,-0.324249,1.226425,-0.012695,-0.586914,0.849121,1.947073934520386,-34.70034387443372,112.02585460968399,0.5376954078674316,-0.18012477457523346,-0.2381642758846283,0.7884892225265503
1623561c-f008-4531-86f8-a372810430ac,fed1223c-9041-4484-928e-e96c55bc8658,1761218855386580076,-2.035141,0.4673,1.348495,-0.01709,-0.597656,0.84082,1.9519384146955234,-34.720052498140944,111.86425021262335,0.5387905240058899,-0.180585116147995,-0.23802359402179718,0.7876784801483154
1623561c-f008-4531-86f8-a372810430ac,fed1223c-9041-4484-928e-e96c55bc8658,1761218855397234076,-2.281189,0.530243,1.470566,-0.017578,-0.575195,0.833984,1.9601067069002085,-34.740319308077574,111.77404374647425,0.5394001603126526,-0.18092244863510132,-0.23798315227031708,0.7871959209442139
1623561c-f008-4531-86f8-a372810430ac,fed1223c-9041-4484-928e-e96c55bc8658,1761218855408315076,-2.403259,0.652313,1.16539,-0.03418,-0.585938,0.85791,1.9765601101243153,-34.75819334881943,111.66275097669416,0.5401745438575745,-0.18134936690330505,-0.23785336315631866,0.786605715751648
1623561c-f008-4531-86f8-a372810430ac,fed1223c-9041-4484-928e-e96c55bc8658,1761218855419396076,-2.220154,0.774384,1.16539,-0.019043,-0.597168,0.849609,1.9830873516230736,-34.77636269217273,111.4934917326876,0.5413248538970947,-0.18182972073554993,-0.23767991364002228,0.7857560515403748
1623561c-f008-4531-86f8-a372810430ac,fed1223c-9041-4484-928e-e96c55bc8658,1761218855430477076,-1.85585,1.016617,0.982285,-0.01709,-0.601074,0.843262,1.9897755706228963,-34.79940594406785,111.34080656142626,0.5423540472984314,-0.18229940533638,-0.2375648021697998,0.7849719524383545
1623561c-f008-4531-86f8-a372810430ac,fed1223c-9041-4484-928e-e96c55bc8658,1761218855438157076,-1.85585,1.504898,0.677109,-0.022461,-0.58252,0.841797,2.013809862746228,-34.83484246871666,111.09976595185235,0.5440056920051575,-0.18312865495681763,-0.23731091618537903,0.783711850643158
1623561c-f008-4531-86f8-a372810430ac,fed1223c-9041-4484-928e-e96c55bc8658,1761218855445837076,-1.731873,1.567841,0.371933,-0.011719,-0.585449,0.848633,2.022995275726951,-34.84967622113428,110.97023908766997,0.5448900461196899,-0.18352895975112915,-0.23716223239898682,0.7830485701560974
1623561c-f008-4531-86f8-a372810430ac,fed1223c-9041-4484-928e-e96c55bc8658,1761218855453517076,-1.363754,1.443863,0.005722,-0.025391,-0.594727,0.842773,2.0280089184547236,-34.8623097590339,110.81303679743537,0.5459569096565247,-0.1839475929737091,-0.23697325587272644,0.7822640538215637
1623561c-f008-4531-86f8-a372810430ac,fed1223c-9041-4484-928e-e96c55bc8658,1761218855461197076,-0.816345,1.384735,-0.360489,-0.021973,-0.575684,0.843262,2.0352808571232037,-34.86820880883745,110.7314666015812,0.5465205907821655,-0.18419352173805237,-0.2368481308221817,0.7818503975868225
1623561c-f008-4531-86f8-a372810430ac,fed1223c-9041-4484-928e-e96c55bc8658,1761218855471876076,-0.87738,1.750946,-0.60463,-0.020996,-0.586914,0.847168,2.0440290399178713,-34.873749248372654,110.62862237043741,0.5472325682640076,-0.18449169397354126,-0.23667901754379272,0.7813331484794617
1623561c-f008-4531-86f8-a372810430ac,fed1223c-9041-4484-928e-e96c55bc8658,1761218855482555076,-0.694275,1.384735,-1.092911,-0.037598,-0.598633,0.853027,2.050660139463959,-34.87885945161945,110.47871423785554,0.5482609272003174,-0.1848703920841217,-0.23644082248210907,0.7805944681167603
1623561c-f008-4531-86f8-a372810430ac,fed1223c-9041-4484-928e-e96c55bc8658,1761218855493234076,-0.450134,1.567841,-1.337051,-0.026367,-0.584961,0.843262,2.051987002561025,-34.882150261881314,110.314193112317,0.549379289150238,-0.1852342039346695,-0.23619136214256287,0.7797970771789551
1623561c-f008-4531-86f8-a372810430ac,fed1223c-9041-4484-928e-e96c55bc8658,1761218855503921076,0.03624,1.443863,-1.825333,-0.029785,-0.579102,0.847168,2.052719146216573,-34.8794127499528,110.14007417329519,0.5505688190460205,-0.1855849325656891,-0.23588736355304718,0.7789662480354309
1623561c-f008-4531-86f8-a372810430ac,fed1223c-9041-4484-928e-e96c55bc8658,1761218855514609076,-0.144958,1.384735,-1.398087,-0.033691,-0.595215,0.838867,2.056234993974408,-34.88306363292569,109.99081118357003,0.5515851974487305,-0.1859331876039505,-0.23565348982810974,0.7782346606254578
1623561c-f008-4531-86f8-a372810430ac,fed1223c-9041-4484-928e-e96c55bc8658,1761218855525297076,-0.389099,1.20163,-1.642227,-0.032715,-0.583008,0.849121,2.0615411428535313,-34.885432934512444,109.84081393250024,0.5526110529899597,-0.1862887591123581,-0.23540052771568298,0.7774980068206787
1623561c-f008-4531-86f8-a372810430ac,fed1223c-9041-4484-928e-e96c55bc8658,1761218855533271076,-0.450134,1.506805,-1.214981,-0.029297,-0.581055,0.845215,2.0748270330924607,-34.888025260461674,109.55827925953096,0.5545499920845032,-0.18697090446949005,-0.23489390313625336,0.7761057615280151
1623561c-f008-4531-86f8-a372810430ac,fed1223c-9041-4484-928e-e96c55bc8658,1761218855541244076,-0.328064,1.384735,-1.092911,-0.035645,-0.588867,0.846191,2.080743857580525,-34.891367120287164,109.42962992748444,0.5554284453392029,-0.1872904896736145,-0.2346779704093933,0.7754655480384827
1623561c-f008-4531-86f8-a372810430ac,fed1223c-9041-4484-928e-e96c55bc8658,1761218855549217076,-0.389099,1.567841,-1.398087,-0.032715,-0.589844,0.853516,2.0893125155302696,-34.893056601203156,109.27953063616027,0.5564588904380798,-0.1876637041568756,-0.2344023436307907,0.7747196555137634
1623561c-f008-4531-86f8-a372810430ac,fed1223c-9041-4484-928e-e96c55bc8658,1761218855557190076,-0.572205,1.079559,-0.84877,-0.047363,-0.59375,0.842773,2.0995661712341853,-34.89950286877277,109.16843237034001,0.5572217106819153,-0.1879909783601761,-0.23421433568000793,0.77414870262146
1623561c-f008-4531-86f8-a372810430ac,fed1223c-9041-4484-928e-e96c55bc8658,1761218855567877076,-0.572205,1.20163,-0.543594,-0.036133,-0.583008,0.840332,2.1078414908195997,-34.900867571889634,109.11305735740551,0.5576107501983643,-0.1881665587425232,-0.23409248888492584,0.7738627195358276
1623561c-f008-4531-86f8-a372810430ac,fed1223c-9041-4484-928e-e96c55bc8658,1761218855578564076,-0.572205,0.713348,-0.421524,-0.033203,-0.598633,0.838867,2.1113423661162094,-34.90522933033325,109.00551885365817,0.5583378076553345,-0.18843071162700653,-0.23392842710018158,0.7733235955238342
1623561c-f008-4531-86f8-a372810430ac,fed1223c-9041-4484-928e-e96c55bc8658,1761218855589251076,-0.696182,0.833511,-0.177383,-0.020996,-0.57373,0.847168,2.1122554743596313,-34.90115906506425,108.88006475612691,0.5591916441917419,-0.18867330253124237,-0.23368985950946808,0.7727194428443909
1623561c-f008-4531-86f8-a372810430ac,fed1223c-9041-4484-928e-e96c55bc8658,1761218855599894076,-0.635147,0.4673,-0.055313,-0.03418,-0.587891,0.854492,2.1125366348454953,-34.900757542183776,108.74071636938191,0.5601320266723633,-0.1889573037624359,-0.23345614969730377,0.7720392942428589
1623561c-f008-4531-86f8-a372810430ac,fed1223c-9041-4484-928e-e96c55bc8658,1761218855610539076,-0.75531,0.774384,0.005722,-0.032715,-0.590332,0.852051,2.112021092921134,-34.8995533281829,108.58378069475998,0.5611894726753235,-0.1892675906419754,-0.23319150507450104,0.7712749242782593
1623561c-f008-4531-86f8-a372810430ac,fed1223c-9041-4484-928e-e96c55bc8658,1761218855621184076,-0.635147,1.443863,-0.299454,-0.036621,-0.583984,0.851562,2.1134309492413696,-34.893443964081506,108.42495356368926,0.562269389629364,-0.1895705908536911,-0.2328806072473526,0.7705075740814209
1623561c-f008-4531-86f8-a372810430ac,fed1223c-9041-4484-928e-e96c55bc8658,1761218855631866076,-0.329971,1.321793,-0.360489,-0.02832,-0.588867,0.859375,2.126067232173159,-34.891959512027775,108.1274793441172,0.5642954111099243,-0.19025211036205292,-0.23231543600559235,0.7690276503562927
1623561c-f008-4531-86f8-a372810430ac,fed1223c-9041-4484-928e-e96c55bc8658,1761218855642549076,0.038147,1.567841,-0.482559,-0.041992,-0.586914,0.868652,2.137684010898361,-34.88563589292371,108.05002551646724,0.5648475289344788,-0.1904563307762146,-0.23208674788475037,0.7686407566070557
1623561c-f008-4531-86f8-a372810430ac,fed1223c-9041-4484-928e-e96c55bc8658,1761218855653232076,0.15831,1.504898,-0.543594,-0.028809,-0.596191,0.851074,2.1428448293895843,-34.8861735484419,107.91332866506514,0.5657737255096436,-0.1907702535390854,-0.23183754086494446,0.7679566144943237
1623561c-f008-4531-86f8-a372810430ac,fed1223c-9041-4484-928e-e96c55bc8658,1761218855661244076,0.831604,1.079559,-1.153946,-0.040039,-0.586914,0.858887,2.151098067264725,-34.877561218902216,107.81177375854975,0.5664829611778259,-0.19098903238773346,-0.23156940937042236,0.7674601078033447
1623561c-f008-4531-86f8-a372810430ac,fed1223c-9041-4484-928e-e96c55bc8658,1761218855669256076,1.014709,0.408173,-0.97084,-0.029297,-0.591797,0.858887,2.153872957090385,-34.86598601199236,107.76677753728602,0.5668062567710876,-0.1910421997308731,-0.23140250146389008,0.7672584652900696
1623561c-f008-4531-86f8-a372810430ac,fed1223c-9041-4484-928e-e96c55bc8658,1761218855677268076,0.953674,0.591278,-0.909805,-0.044434,-0.580078,0.859375,2.1583959000188377,-34.848648907644666,107.6716548412142,0.5674766302108765,-0.1911800056695938,-0.23110441863536835,0.7668183445930481
1623561c-f008-4531-86f8-a372810430ac,fed1223c-9041-4484-928e-e96c55bc8658,1761218855685280076,1.38092,0.286102,-0.909805,-0.035645,-0.583496,0.856934,2.157173130478929,-34.83500408230016,107.55076454218757,0.5683021545410156,-0.19134894013404846,-0.23081663250923157,0.7662513256072998
1623561c-f008-4531-86f8-a372810430ac,fed1223c-9041-4484-928e-e96c55bc8658,1761218855695910076,1.440048,0.28801,-0.787735,-0.050293,-0.571777,0.856445,2.1631173559780463,-34.81825985375687,107.41388836322855,0.5692527294158936,-0.19158236682415009,-0.23044553399085999,0.7655988335609436
1623561c-f008-4531-86f8-a372810430ac,fed1223c-9041-4484-928e-e96c55bc8658,1761218855706540076,2.111435,0.040054,-0.116348,-0.053711,-0.57373,0.847656,2.1709527591143587,-34.79959001525916,107.28409973136914,0.570161759853363,-0.1918041706085205,-0.23006369173526764,0.7649813890457153
1623561c-f008-4531-86f8-a372810430ac,fed1223c-9041-4484-928e-e96c55bc8658,1761218855717170076,1.749039,-0.020981,0.005722,-0.050293,-0.586914,0.862793,2.1770426344088576,-34.77784259432389,107.16602327199253,0.5709928274154663,-0.19197513163089752,-0.22968924045562744,0.7644309401512146
1623561c-f008-4531-86f8-a372810430ac,fed1223c-9041-4484-928e-e96c55bc8658,1761218855727867076,1.747131,-0.202179,0.494003,-0.021973,-0.566895,0.848144,2.1829475994201615,-34.739050958524935,106.95859776150054,0.5724426507949829,-0.19223925471305847,-0.2290511429309845,0.7634710669517517
1623561c-f008-4531-86f8-a372810430ac,fed1223c-9041-4484-928e-e96c55bc8658,1761218855738566076,1.625061,0.102997,0.432968,-0.029297,-0.575195,0.850586,2.1888371030282854,-34.7191620725158,106.90311288811854,0.5728523135185242,-0.1922915130853653,-0.22879494726657867,0.7632274627685547
1623561c-f008-4531-86f8-a372810430ac,fed1223c-9041-4484-928e-e96c55bc8658,1761218855749265076,1.317978,0.162125,0.555038,-0.026367,-0.562988,0.850586,2.192031564760524,-34.70282785915587,106.79542918154571,0.5735989212989807,-0.1924472600221634,-0.2284884750843048,0.7627190351486206
1623561c-f008-4531-86f8-a372810430ac,fed1223c-9041-4484-928e-e96c55bc8658,1761218855759904076,0.587463,0.347137,0.799179,-0.02002,-0.57373,0.840332,2.1913958654896635,-34.69511838868033,106.68759051548297,0.5743261575698853,-0.1926199346780777,-0.22825871407985687,0.7621968388557434
1623561c-f008-4531-86f8-a372810430ac,fed1223c-9041-4484-928e-e96c55bc8658,1761218855770546076,0.646591,0.34523,0.616074,-0.026855,-0.567383,0.838867,2.1881492404794587,-34.687527915441834,106.58799284460021,0.5749927759170532,-0.1927591860294342,-0.22805659472942352,0.7617194056510925
1623561c-f008-4531-86f8-a372810430ac,fed1223c-9041-4484-928e-e96c55bc8658,1761218855781188076,0.343323,0.347137,0.738144,-0.025391,-0.574219,0.847168,2.1849380601763326,-34.68063471232725,106.47274534879097,0.5757620334625244,-0.19293303787708282,-0.22783255577087402,0.7611611485481262
1623561c-f008-4531-86f8-a372810430ac,fed1223c-9041-4484-928e-e96c55bc8658,1761218855789208076,0.099182,0.713348,0.127792,-0.026367,-0.567871,0.857422,2.175186377766097,-34.665174165070454,106.20295799429326,0.5775552988052368,-0.19332754611968994,-0.22732341289520264,0.7598535418510437
1623561c-f008-4531-86f8-a372810430ac,fed1223c-9041-4484-928e-e96c55bc8658,1761218855797227076,-0.022888,0.225067,0.005722,-0.016602,-0.57373,0.853516,2.1704553690002286,-34.658187314397566,106.09615073082492,0.5782639384269714,-0.19347327947616577,-0.2271202802658081,0.7593380808830261
1623561c-f008-4531-86f8-a372810430ac,fed1223c-9041-4484-928e-e96c55bc8658,1761218855805246076,-0.207901,0.34523,-0.60463,-0.024902,-0.570801,0.855957,2.164523493221428,-34.65099908189983,106.02018091692253,0.5787658095359802,-0.193548783659935,-0.22697389125823975,0.7589801549911499
1623561c-f008-4531-86f8-a372810430ac,fed1223c-9041-4484-928e-e96c55bc8658,1761218855813265076,-0.329971,0.34523,-0.60463,-0.033203,-0.583984,0.856934,2.1651242665157873,-34.646336827754446,105.89919728468074,0.579574704170227,-0.19376906752586365,-0.22673524916172028,0.7583777904510498
1623561c-f008-4531-86f8-a372810430ac,fed1223c-9041-4484-928e-e96c55bc8658,1761218855823942076,-0.267029,0.530243,-1.031876,-0.023926,-0.581543,0.852051,2.1568676238099864,-34.64238531424001,105.80224695101066,0.580205500125885,-0.19388653337955475,-0.22658666968345642,0.7579096555709839
1623561c-f008-4531-86f8-a372810430ac,fed1223c-9041-4484-928e-e96c55bc8658,1761218855834619076,-0.328064,0.041962,-0.97084,-0.021973,-0.569824,0.838867,2.1505750346281105,-34.63882128297102,105.75038000496143,0.58054119348526,-0.19392968714237213,-0.22650699317455292,0.7576653361320496
1623561c-f008-4531-86f8-a372810430ac,fed1223c-9041-4484-928e-e96c55bc8658,1761218855845296076,-0.389099,0.286102,-1.276016,-0.033691,-0.569824,0.858398,2.1491377741948576,-34.62900160891821,105.66788316468926,0.5810978412628174,-0.1940341591835022,-0.226309135556221,0.7572709321975708
1623561c-f008-4531-86f8-a372810430ac,fed1223c-9041-4484-928e-e96c55bc8658,1761218855853276076,-0.389099,0.408173,-1.153946,-0.03125,-0.569336,0.85791,2.144346553149801,-34.630608398833736,105.51070451140706,0.5821242332458496,-0.19432082772254944,-0.2260778248310089,0.7564777135848999
1623561c-f008-4531-86f8-a372810430ac,fed1223c-9041-4484-928e-e96c55bc8658,1761218855861256076,-0.696182,0.28801,-1.337051,-0.032227,-0.593262,0.847656,2.1453179956645574,-34.633513605656404,105.38316457273575,0.5829635262489319,-0.19459328055381775,-0.22587579488754272,0.7558214664459229
1623561c-f008-4531-86f8-a372810430ac,fed1223c-9041-4484-928e-e96c55bc8658,1761218855869236076,-1.001358,0.162125,-0.84877,-0.03418,-0.580078,0.848633,2.1397577096145564,-34.6378563069832,105.25917679956221,0.5837637186050415,-0.19482269883155823,-0.2257223129272461,0.755190372467041
1623561c-f008-4531-86f8-a372810430ac,fed1223c-9041-4484-928e-e96c55bc8658,1761218855877216076,-1.243591,0.713348,-0.543594,-0.034668,-0.568359,0.843262,2.1421114638646475,-34.63338780926072,105.16470458911196,0.5843972563743591,-0.19500179588794708,-0.22551992535591125,0.7547144293785095
1623561c-f008-4531-86f8-a372810430ac,fed1223c-9041-4484-928e-e96c55bc8658,1761218855887898076,-1.306534,0.4673,-0.177383,-0.033203,-0.561035,0.856934,2.1470531232753696,-34.63385529445314,105.06450092770365,0.585066020488739,-0.1952337920665741,-0.22532719373703003,0.7541937232017517
1623561c-f008-4531-86f8-a372810430ac,fed1223c-9041-4484-928e-e96c55bc8658,1761218855898580076,-1.426697,0.835419,-0.177383,-0.034668,-0.574707,0.846191,2.149319111748525,-34.641871685030274,104.97646299115806,0.5856380462646484,-0.19546210765838623,-0.2252187579870224,0.7537228465080261
1623561c-f008-4531-86f8-a372810430ac,fed1223c-9041-4484-928e-e96c55bc8658,1761218855909262076,-1.487732,0.591278,-0.177383,-0.038574,-0.578613,0.852539,2.1555351870572474,-34.651757489237276,104.90971375251229,0.5860747694969177,-0.19568391144275665,-0.22513864934444427,0.7533497214317322
1623561c-f008-4531-86f8-a372810430ac,fed1223c-9041-4484-928e-e96c55bc8658,1761218855917252076,-1.61171,0.955582,0.005722,-0.024414,-0.568359,0.853027,2.158461047301401,-34.66005256466608,104.80698288788095,0.5867435336112976,-0.19594672322273254,-0.22500313818454742,0.7528011202812195
1623561c-f008-4531-86f8-a372810430ac,fed1223c-9041-4484-928e-e96c55bc8658,1761218855925242076,-1.548767,0.835419,0.249863,-0.02832,-0.578613,0.854492,2.166677921519726,-34.669170012471945,104.65631484683321,0.5877355933189392,-0.1963423639535904,-0.22476354241371155,0.751995325088501
1623561c-f008-4531-86f8-a372810430ac,fed1223c-9041-4484-928e-e96c55bc8658,1761218855933232076,-1.426697,0.896454,0.249863,-0.028809,-0.589844,0.844727,2.1752519762838447,-34.680089520269625,104.5900733107606,0.5881710052490234,-0.19658368825912476,-0.22467827796936035,0.7516172528266907
1623561c-f008-4531-86f8-a372810430ac,fed1223c-9041-4484-928e-e96c55bc8658,1761218855941222076,-1.548767,0.286102,0.188828,-0.036621,-0.574219,0.85498,2.1857638416302754,-34.68858005392307,104.50619729500802,0.5887291431427002,-0.1968599557876587,-0.2245364934206009,0.7511501908302307
1623561c-f008-4531-86f8-a372810430ac,fed1223c-9041-4484-928e-e96c55bc8658,1761218855951898076,-1.184464,0.4673,-0.177383,-0.023438,-0.595703,0.846191,2.188304665094995,-34.699972948208384,104.37420382335675,0.5895822048187256,-0.19719281792640686,-0.22437182068824768,0.7504426836967468
1623561c-f008-4531-86f8-a372810430ac,fed1223c-9041-4484-928e-e96c55bc8658,1761218855962574076,-1.426697,0.408173,-0.055313,-0.039551,-0.596191,0.86084,2.1915150135186603,-34.70649527612261,104.2575607495729,0.5903424620628357,-0.19747520983219147,-0.22419752180576324,0.7498225569725037
1623561c-f008-4531-86f8-a372810430ac,fed1223c-9041-4484-928e-e96c55bc8658,1761218855973250076,-1.365662,0.102997,-0.299454,-0.02832,-0.580566,0.855469,2.190776018243631,-34.708230269222305,104.1383635846452,0.5911180973052979,-0.19771228730678558,-0.224007248878479,0.7492056488990784
1623561c-f008-4531-86f8-a372810430ac,fed1223c-9041-4484-928e-e96c55bc8658,1761218855981257076,-1.243591,0.591278,-0.60463,-0.021484,-0.581543,0.854004,2.180408470464638,-34.72205398750389,103.88822006958382,0.5927114486694336,-0.19820354878902435,-0.22371982038021088,0.7479017972946167
1623561c-f008-4531-86f8-a372810430ac,fed1223c-9041-4484-928e-e96c55bc8658,1761218855989264076,-1.121521,0.835419,-0.84877,-0.027832,-0.583496,0.85498,2.1830252344767995,-34.73032620605479,103.77200847094014,0.5934624671936035,-0.19848960638046265,-0.22355960309505463,0.7472779750823975
1623561c-f008-4531-86f8-a372810430ac,fed1223c-9041-4484-928e-e96c55bc8658,1761218855997271076,-0.696182,0.776291,-1.031876,-0.034668,-0.577637,0.861328,2.1803356262448386,-34.73180969438881,103.73298414480828,0.5937094688415527,-0.19855575263500214,-0.22351568937301636,0.7470773458480835
1623561c-f008-4531-86f8-a372810430ac,fed1223c-9041-4484-928e-e96c55bc8658,1761218856005278076,-0.207901,0.4673,-1.153946,-0.031738,-0.581543,0.85791,2.180276231062412,-34.72654164594815,103.67745293325447,0.5940791368484497,-0.1986367553472519,-0.22338509559631348,0.74680095911026
1623561c-f008-4531-86f8-a372810430ac,fed1223c-9041-4484-928e-e96c55bc8658,1761218856015924076,0.343323,0.225067,-1.398087,-0.049316,-0.578613,0.85498,2.1777846724675034,-34.7160606350231,103.55378370484621,0.5948954820632935,-0.19880791008472443,-0.22311463952064514,0.7461861371994019
1623561c-f008-4531-86f8-a372810430ac,fed1223c-9041-4484-928e-e96c55bc8658,1761218856026570076,0.221252,-0.141144,-1.642227,-0.035645,-0.579102,0.844238,2.1718868265084073,-34.7099269308703,103.50029437499185,0.595241367816925,-0.19884225726127625,-0.22301214933395386,0.7459317445755005
1623561c-f008-4531-86f8-a372810430ac,fed1223c-9041-4484-928e-e96c55bc8658,1761218856037216076,0.526428,-0.324249,-1.520157,-0.043457,-0.572754,0.848633,2.1716028624868313,-34.70058005661901,103.42682317188324,0.5957328677177429,-0.19893549382686615,-0.22282470762729645,0.7455704212188721
1623561c-f008-4531-86f8-a372810430ac,fed1223c-9041-4484-928e-e96c55bc8658,1761218856047986076,0.406265,-0.020981,-1.031876,-0.029297,-0.574219,0.843262,2.165034274286164,-34.69379476356297,103.29461114319139,0.5965900421142578,-0.19911494851112366,-0.22258470952510834,0.7449085116386414
1623561c-f008-4531-86f8-a372810430ac,fed1223c-9041-4484-928e-e96c55bc8658,1761218856058758076,0.28038,0.22316,-0.97084,-0.028809,-0.57666,0.830078,2.1604501389889044,-34.69348039302895,103.1635100485315,0.5974334478378296,-0.19933806359767914,-0.22237859666347504,0.7442342042922974
1623561c-f008-4531-86f8-a372810430ac,fed1223c-9041-4484-928e-e96c55bc8658,1761218856069530076,-0.022888,0.896454,-0.787735,-0.022949,-0.583984,0.858398,2.1586044577280865,-34.688861461650724,103.02929116645139,0.5983080863952637,-0.1995626837015152,-0.2221243530511856,0.7435469031333923
1623561c-f008-4531-86f8-a372810430ac,fed1223c-9041-4484-928e-e96c55bc8658,1761218856080283076,-0.083923,0.591278,-0.60463,-0.033691,-0.581055,0.841309,2.1584119318089505,-34.68117308446634,102.83488610739471,0.5995798110961914,-0.1998983472585678,-0.22173619270324707,0.7425475120544434
1623561c-f008-4531-86f8-a372810430ac,fed1223c-9041-4484-928e-e96c55bc8658,1761218856091038076,-0.694275,0.408173,-0.238419,-0.038574,-0.583984,0.846191,2.1619628991012942,-34.6792746100295,102.73301408987383,0.6002494096755981,-0.2001085728406906,-0.22152738273143768,0.742012083530426
1623561c-f008-4531-86f8-a372810430ac,fed1223c-9041-4484-928e-e96c55bc8658,1761218856101793076,-0.572205,0.408173,-0.177383,-0.023926,-0.575195,0.850098,2.1621174765329068,-34.676767012250764,102.73513277679142,0.6002397537231445,-0.20009253919124603,-0.22151388227939606,0.7420282363891602
1623561c-f008-4531-86f8-a372810430ac,fed1223c-9041-4484-928e-e96c55bc8658,1761218856109677076,-0.63324,0.713348,-0.177383,-0.030273,-0.591309,0.838867,2.1649632945775252,-34.676963855754366,102.70213273891594,0.6004586219787598,-0.20017576217651367,-0.22144262492656708,0.741849958896637
1623561c-f008-4531-86f8-a372810430ac,fed1223c-9041-4484-928e-e96c55bc8658,1761218856117560076,-0.938416,0.408173,-0.177383,-0.027344,-0.57373,0.837402,2.163954088932793,-34.678089721484085,102.59516175277913,0.6011472344398499,-0.20038168132305145,-0.22126831114292145,0.7412884831428528
1623561c-f008-4531-86f8-a372810430ac,fed1223c-9041-4484-928e-e96c55bc8658,1761218856125443076,-0.818253,0.650406,-0.238419,-0.013184,-0.581055,0.845703,2.157066242192982,-34.67700991326144,102.49310184581549,0.6017955541610718,-0.2005285620689392,-0.22111888229846954,0.7407671213150024
1623561c-f008-4531-86f8-a372810430ac,fed1223c-9041-4484-928e-e96c55bc8658,1761218856133326076,-0.999451,0.591278,-0.360489,-0.024414,-0.598145,0.848633,2.1555741623838864,-34.67710251388727,102.40976464874386,0.6023311018943787,-0.20068015158176422,-0.2209814339876175,0.7403317093849182
1623561c-f008-4531-86f8-a372810430ac,fed1223c-9041-4484-928e-e96c55bc8658,1761218856143972076,-1.001358,0.4673,-0.60463,-0.018555,-0.584961,0.84375,2.151538441869409,-34.675764691861126,102.30596671691202,0.6029956936836243,-0.20084723830223083,-0.22081208229064941,0.7397957444190979
1623561c-f008-4531-86f8-a372810430ac,fed1223c-9041-4484-928e-e96c55bc8658,1761218856154618076,-0.572205,0.591278,-0.665665,-0.017578,-0.57373,0.853516,2.146587746464382,-34.67160984605267,102.19739155774472,0.6036931276321411,-0.20100286602973938,-0.22062070667743683,0.7392415404319763
1623561c-f008-4531-86f8-a372810430ac,fed1223c-9041-4484-928e-e96c55bc8658,1761218856165264076,-0.144958,0.347137,-0.909805,-0.018555,-0.584961,0.848633,2.1433393387594277,-34.66833750751187,102.08704952879096,0.6044033765792847,-0.20117725431919098,-0.2204228937625885,0.7386725544929504
1623561c-f008-4531-86f8-a372810430ac,fed1223c-9041-4484-928e-e96c55bc8658,1761218856175913076,-0.207901,0.593185,-1.031876,-0.036621,-0.58252,0.849609,2.137885824945661,-34.666533455842554,101.9339540867583,0.605381965637207,-0.20142704248428345,-0.2201710045337677,0.7378778457641602
1623561c-f008-4531-86f8-a372810430ac,fed1223c-9041-4484-928e-e96c55bc8658,1761218856186565076,-0.144958,0.408173,-1.398087,-0.024414,-0.582031,0.850098,2.1298581890899775,-34.66613102897591,101.8108137122531,0.6061597466468811,-0.2016097903251648,-0.21999427676200867,0.737241804599762
1623561c-f008-4531-86f8-a372810430ac,fed1223c-9041-4484-928e-e96c55bc8658,1761218856197217076,-0.146866,0.650406,-1.642227,-0.03418,-0.594238,0.849121,2.1261369550217966,-34.668941847277154,101.71007693717816,0.6067962050437927,-0.2017938643693924,-0.2198549062013626,0.7367092370986938
1623561c-f008-4531-86f8-a372810430ac,fed1223c-9041-4484-928e-e96c55bc8658,1761218856205227076,-0.083923,0.774384,-1.337051,-0.033203,-0.583496,0.854004,2.122758259023362,-34.6676716206766,101.64311063852753,0.6072220802307129,-0.20189395546913147,-0.21974660456180573,0.7363631725311279
1623561c-f008-4531-86f8-a372810430ac,fed1223c-9041-4484-928e-e96c55bc8658,1761218856213238076,0.341415,0.955582,-1.581192,-0.035156,-0.595215,0.847168,2.121225469390006,-34.66966374778539,101.50445269684455,0.6081066727638245,-0.2021602839231491,-0.21952319145202637,0.7356263995170593
1623561c-f008-4531-86f8-a372810430ac,fed1223c-9041-4484-928e-e96c55bc8658,1761218856221249076,0.221252,1.018524,-1.214981,-0.038086,-0.61084,0.851562,2.12252708466587,-34.67124605864276,101.36643175652854,0.608992338180542,-0.20244118571281433,-0.219282865524292,0.7348877787590027
1623561c-f008-4531-86f8-a372810430ac,fed1223c-9041-4484-928e-e96c55bc8658,1761218856229260076,0.526428,0.774384,-1.459122,-0.036133,-0.585938,0.858398,2.12662942344177,-34.66477626120312,101.2554012436973,0.609721839427948,-0.2026458978652954,-0.2190229296684265,0.7343037724494934
1623561c-f008-4531-86f8-a372810430ac,fed1223c-9041-4484-928e-e96c55bc8658,1761218856239921076,0.892639,0.835419,-1.398087,-0.028809,-0.575684,0.847656,2.1258897615580827,-34.65690493548764,101.1783954661061,0.6102257966995239,-0.20274698734283447,-0.21883974969387054,0.7339116930961609
1623561c-f008-4531-86f8-a372810430ac,fed1223c-9041-4484-928e-e96c55bc8658,1761218856250582076,0.951767,0.4673,-1.214981,-0.04834,-0.578125,0.849121,2.1338005198706393,-34.646613866011656,101.10500943655012,0.610726535320282,-0.20288366079330444,-0.21860119700431824,0.7335283756256104
1623561c-f008-4531-86f8-a372810430ac,fed1223c-9041-4484-928e-e96c55bc8658,1761218856261243076,0.892639,0.102997,-1.153946,-0.03418,-0.576172,0.848144,2.1297769156876436,-34.63511529506147,101.01856258779694,0.6112896800041199,-0.20296229422092438,-0.21839527785778046,0.7330987453460693
1623561c-f008-4531-86f8-a372810430ac,fed1223c-9041-4484-928e-e96c55bc8658,1761218856271932076,1.441956,0.591278,-0.97084,-0.033691,-0.583984,0.857422,2.1305725320095146,-34.61141569308546,100.91350416071467,0.6119993925094604,-0.20304271578788757,-0.21805189549922943,0.7325863838195801
1623561c-f008-4531-86f8-a372810430ac,fed1223c-9041-4484-928e-e96c55bc8658,1761218856282623076,1.075745,-0.141144,-0.909805,-0.03125,-0.578613,0.856934,2.1277094330178223,-34.59783061271846,100.81956123671742,0.612615168094635,-0.20313149690628052,-0.21781304478645325,0.7321180105209351
1623561c-f008-4531-86f8-a372810430ac,fed1223c-9041-4484-928e-e96c55bc8658,1761218856293314076,1.808167,0.286102,-0.84877,-0.039062,-0.58252,0.852051,2.126673538779473,-34.582024016761636,100.74877160985429,0.6130896210670471,-0.20317600667476654,-0.21759115159511566,0.7317743897438049
1623561c-f008-4531-86f8-a372810430ac,fed1223c-9041-4484-928e-e96c55bc8658,1761218856303962076,1.502991,0.591278,-0.665665,-0.024414,-0.586426,0.853027,2.1266089160546007,-34.56998703067466,100.72053446812473,0.6132882833480835,-0.2031656950712204,-0.21746383607387543,0.7316485643386841
1623561c-f008-4531-86f8-a372810430ac,fed1223c-9041-4484-928e-e96c55bc8658,1761218856314609076,1.625061,0.225067,-0.543594,-0.039551,-0.581055,0.853027,2.131581268442203,-34.54914846449148,100.66115736624373,0.6137087345123291,-0.20320002734661102,-0.21719762682914734,0.7313655018806458
1623561c-f008-4531-86f8-a372810430ac,fed1223c-9041-4484-928e-e96c55bc8658,1761218856325256076,1.625061,-0.080109,-0.299454,-0.040527,-0.577637,0.847168,2.133508410583945,-34.53303222283149,100.58491560035056,0.6142235994338989,-0.20327159762382507,-0.2169482558965683,0.7309873104095459
1623561c-f008-4531-86f8-a372810430ac,fed1223c-9041-4484-928e-e96c55bc8658,1761218856335896076,1.256943,-0.448227,0.005722,-0.040527,-0.57373,0.850586,2.1362597136129664,-34.50964163118296,100.41742431810836,0.6153325438499451,-0.20348213613033295,-0.2164856642484665,0.7301327586174011
1623561c-f008-4531-86f8-a372810430ac,fed1223c-9041-4484-928e-e96c55bc8658,1761218856346538076,1.256943,-1.176834,0.188828,-0.039062,-0.569824,0.851562,2.127319963611098,-34.49541161602894,100.35619366813546,0.6157276034355164,-0.20346544682979584,-0.21633343398571014,0.7298493981361389
1623561c-f008-4531-86f8-a372810430ac,fed1223c-9041-4484-928e-e96c55bc8658,1761218856357180076,1.319885,-1.117706,0.371933,-0.03125,-0.575195,0.84375,2.1154377901184445,-34.484116125320774,100.26964554375647,0.6162736415863037,-0.20349323749542236,-0.2161710113286972,0.729428768157959
1623561c-f008-4531-86f8-a372810430ac,fed1223c-9041-4484-928e-e96c55bc8658,1761218856365201076,0.951767,-1.913071,0.616074,-0.041992,-0.581543,0.851562,2.104659872260912,-34.47361112944456,100.21785047257384,0.6165991425514221,-0.20346659421920776,-0.2160695195198059,0.7291911244392395
1623561c-f008-4531-86f8-a372810430ac,fed1223c-9041-4484-928e-e96c55bc8658,1761218856373222076,0.951767,-1.974106,0.982285,-0.034668,-0.560547,0.853027,2.0922571275456803,-34.45962926499543,100.20885930215908,0.6166545152664185,-0.203330397605896,-0.21603047847747803,0.7291938662528992
1623561c-f008-4531-86f8-a372810430ac,fed1223c-9041-4484-928e-e96c55bc8658,1761218856381243076,1.077652,-2.157211,1.04332,-0.013672,-0.577637,0.84668,2.0750861162465055,-34.44741574530554,100.11301773869978,0.6172506809234619,-0.2033369243144989,-0.21587443351745605,0.7287336587905884
1623561c-f008-4531-86f8-a372810430ac,fed1223c-9041-4484-928e-e96c55bc8658,1761218856389264076,0.768661,-2.279282,1.104355,-0.032227,-0.570312,0.836426,2.0621295532405206,-34.435215234479884,100.03373787427253,0.6177491545677185,-0.20333896577358246,-0.21572527289390564,0.728354811668396
1623561c-f008-4531-86f8-a372810430ac,fed1223c-9041-4484-928e-e96c55bc8658,1761218856399924076,0.463486,-1.974106,1.16539,-0.022949,-0.570801,0.849609,2.0409246560501604,-34.42338864734785,99.9852868370027,0.6180354356765747,-0.20323248207569122,-0.21567779779434204,0.7281556725502014
1623561c-f008-4531-86f8-a372810430ac,fed1223c-9041-4484-928e-e96c55bc8658,1761218856410584076,0.160217,-1.544952,0.799179,-0.02832,-0.576172,0.836426,2.0253568153440096,-34.41733864145945,99.92063957277789,0.6184262037277222,-0.20322301983833313,-0.21560834348201752,0.7278470396995544
1623561c-f008-4531-86f8-a372810430ac,fed1223c-9041-4484-928e-e96c55bc8658,1761218856421244076,-0.024796,-1.607895,1.04332,-0.040039,-0.573242,0.845703,2.0196701483255204,-34.412390733313636,99.82950118280527,0.6190018653869629,-0.20333196222782135,-0.21544566750526428,0.7273752689361572
1623561c-f008-4531-86f8-a372810430ac,fed1223c-9041-4484-928e-e96c55bc8658,1761218856431909076,0.099182,-1.422882,0.982285,-0.021973,-0.570801,0.852539,1.9997480366036762,-34.40693669038307,99.66151326468422,0.6200385689735413,-0.20349213480949402,-0.21522025763988495,0.7265137434005737
1623561c-f008-4531-86f8-a372810430ac,fed1223c-9041-4484-928e-e96c55bc8658,1761218856442574076,0.28038,-1.35994,0.494003,-0.012695,-0.57373,0.856445,1.98449750784993,-34.40008910552071,99.60985517781825,0.6203480362892151,-0.20345589518547058,-0.21516726911067963,0.7262753248214722
1623561c-f008-4531-86f8-a372810430ac,fed1223c-9041-4484-928e-e96c55bc8658,1761218856453239076,0.038147,-1.117706,0.249863,-0.022949,-0.588379,0.860352,1.9786242262528992,-34.396877823225076,99.52449194439401,0.6208828687667847,-0.20356173813343048,-0.21502694487571716,0.725830078125
1623561c-f008-4531-86f8-a372810430ac,fed1223c-9041-4484-928e-e96c55bc8658,1761218856461243076,0.404358,-1.239777,0.005722,-0.022461,-0.581055,0.85791,1.9725335895472327,-34.39458753665868,99.47669112223812,0.6211777329444885,-0.20360060036182404,-0.21496039628982544,0.7255865335464478
1623561c-f008-4531-86f8-a372810430ac,fed1223c-9041-4484-928e-e96c55bc8658,1761218856469250076,0.709534,-0.995636,0.066757,-0.025391,-0.572266,0.854004,1.9681714837111215,-34.389503803301146,99.48893240098192,0.6210999488830566,-0.20352278649806976,-0.2149733006954193,0.7256711721420288
1623561c-f008-4531-86f8-a372810430ac,fed1223c-9041-4484-928e-e96c55bc8658,1761218856477257076,1.012802,-0.997543,-0.421524,-0.020508,-0.577637,0.863281,1.961000047857749,-34.38407096313944,99.46593048652223,0.6212406158447266,-0.2034914493560791,-0.21493661403656006,0.7255703806877136
1623561c-f008-4531-86f8-a372810430ac,fed1223c-9041-4484-928e-e96c55bc8658,1761218856485264076,0.709534,-0.56839,-0.360489,-0.035645,-0.587402,0.856445,1.9566717994797824,-34.37820889877639,99.39389085436461,0.6216976642608643,-0.2035677433013916,-0.21479469537734985,0.7251994013786316
1623561c-f008-4531-86f8-a372810430ac,fed1223c-9041-4484-928e-e96c55bc8658,1761218856495914076,1.197815,-0.507355,-0.543594,-0.020508,-0.585449,0.864746,1.9496505600517737,-34.37685326635694,99.30780552429091,0.6222312450408936,-0.20367735624313354,-0.21467117965221405,0.7247474789619446
1623561c-f008-4531-86f8-a372810430ac,fed1223c-9041-4484-928e-e96c55bc8658,1761218856506564076,1.686096,-0.751495,-0.909805,-0.023926,-0.580078,0.865723,1.9378574326737206,-34.363558668867874,99.21464529292346,0.6228189468383789,-0.20370590686798096,-0.21448484063148499,0.7242896556854248
1623561c-f008-4531-86f8-a372810430ac,fed1223c-9041-4484-928e-e96c55bc8658,1761218856517214076,1.749039,-0.509262,-1.153946,-0.030762,-0.605957,0.86084,1.9300549562014386,-34.35062912053883,99.12315619262101,0.6234026551246643,-0.2037583291530609,-0.21428218483924866,0.7238325476646423
1623561c-f008-4531-86f8-a372810430ac,fed1223c-9041-4484-928e-e96c55bc8658,1761218856527894076,2.235413,-0.141144,-1.031876,-0.039551,-0.578125,0.870605,1.9128393544224067,-34.30405892000093,98.93837523143232,0.6246098875999451,-0.20374421775341034,-0.21375077962875366,0.7229523658752441
1623561c-f008-4531-86f8-a372810430ac,fed1223c-9041-4484-928e-e96c55bc8658,1761218856538573076,2.662659,-0.751495,-0.60463,-0.030762,-0.577637,0.861816,1.9014390646146533,-34.278080436436554,98.88217369484786,0.6249838471412659,-0.20363713800907135,-0.2135477215051651,0.7227193117141724
1623561c-f008-4531-86f8-a372810430ac,fed1223c-9041-4484-928e-e96c55bc8658,1761218856549252076,2.723694,-0.751495,-0.787735,-0.034668,-0.573242,0.857422,1.8916400035801357,-34.248859428035495,98.81315224284651,0.625446617603302,-0.20354638993740082,-0.2132926881313324,0.7224196791648865
1623561c-f008-4531-86f8-a372810430ac,fed1223c-9041-4484-928e-e96c55bc8658,1761218856559965076,2.662659,-0.69046,-0.299454,-0.024414,-0.569824,0.849609,1.877662878659299,-34.22324440489388,98.72230022615209,0.626033365726471,-0.20348906517028809,-0.21304480731487274,0.7220006585121155
1623561c-f008-4531-86f8-a372810430ac,fed1223c-9041-4484-928e-e96c55bc8658,1761218856570680076,2.599716,-1.119614,0.066757,-0.029785,-0.557617,0.855957,1.8688842659176161,-34.191672840382566,98.70672594774837,0.6261647939682007,-0.20329266786575317,-0.21286454796791077,0.7219937443733215
1623561c-f008-4531-86f8-a372810430ac,fed1223c-9041-4484-928e-e96c55bc8658,1761218856581395076,2.662659,-1.178741,0.432968,-0.03125,-0.570312,0.850098,1.8592778445473812,-34.17045447410522,98.65670038175912,0.626495361328125,-0.20321038365364075,-0.2126934975385666,0.7217805981636047
1623561c-f008-4531-86f8-a372810430ac,fed1223c-9041-4484-928e-e96c55bc8658,1761218856589352076,2.479553,-1.056671,0.310898,-0.020996,-0.569824,0.851562,1.842533542935971,-34.12771444834077,98.46596769288676,0.62773197889328,-0.20322731137275696,-0.21217553317546844,0.7208533883094788
1623561c-f008-4531-86f8-a372810430ac,fed1223c-9041-4484-928e-e96c55bc8658,1761218856597308076,2.174377,-0.873566,0.799179,-0.024414,-0.562988,0.858398,1.8371743672429417,-34.10347149766884,98.39609494053587,0.628199577331543,-0.20319154858589172,-0.21192722022533417,0.7205291390419006
1623561c-f008-4531-86f8-a372810430ac,fed1223c-9041-4484-928e-e96c55bc8658,1761218856605264076,2.052307,-1.056671,1.226425,-0.022949,-0.581055,0.86084,1.83311340336059,-34.0853436016324,98.33133372999417,0.6286276578903198,-0.20318740606307983,-0.21171972155570984,0.7202180027961731
1623561c-f008-4531-86f8-a372810430ac,fed1223c-9041-4484-928e-e96c55bc8658,1761218856613220076,2.235413,-1.544952,1.470566,-0.041992,-0.569336,0.847656,1.835066460383694,-34.06723489652772,98.27682016563853,0.6290022730827332,-0.20320208370685577,-0.21149757504463196,0.7199520468711853
1623561c-f008-4531-86f8-a372810430ac,fed1223c-9041-4484-928e-e96c55bc8658,1761218856623898076,1.749039,-1.485825,2.019882,-0.023437,-0.563477,0.859375,1.8318495355976059,-34.047610784933816,98.22429739719908,0.629357099533081,-0.2031722068786621,-0.21129778027534485,0.7197090983390808
1623561c-f008-4531-86f8-a372810430ac,fed1223c-9041-4484-928e-e96c55bc8658,1761218856634576076,2.052307,-1.239777,1.836777,-0.029297,-0.565918,0.861816,1.8291703867296976,-34.02398491465131,98.21896207504768,0.6294227838516235,-0.20303690433502197,-0.21115338802337646,0.7197322249412537
1623561c-f008-4531-86f8-a372810430ac,fed1223c-9041-4484-928e-e96c55bc8658,1761218856645254076,2.111435,-1.119614,2.202988,-0.018066,-0.560547,0.851074,1.8256311613833778,-34.00530654975634,98.20197046258367,0.6295523047447205,-0.20294448733329773,-0.2110244184732437,0.7196829319000244
1623561c-f008-4531-86f8-a372810430ac,fed1223c-9041-4484-928e-e96c55bc8658,1761218856655907076,1.747131,-0.934601,1.897812,-0.02002,-0.556152,0.851562,1.8222316257539624,-33.981903743716444,98.1590141437612,0.6298525333404541,-0.202875018119812,-0.2108188271522522,0.7195001244544983
1623561c-f008-4531-86f8-a372810430ac,fed1223c-9041-4484-928e-e96c55bc8658,1761218856666563076,1.686096,-1.056671,1.836777,-0.024902,-0.575195,0.852539,1.821540121585884,-33.96463052340195,98.15577227240766,0.629898726940155,-0.2027827501296997,-0.21070751547813416,0.7195183038711548
1623561c-f008-4531-86f8-a372810430ac,fed1223c-9041-4484-928e-e96c55bc8658,1761218856677219076,1.806259,-0.814438,1.470566,-0.017578,-0.576172,0.856934,1.8126512267878772,-33.9470859427445,98.13140937101619,0.6300628781318665,-0.20267632603645325,-0.21060219407081604,0.719435453414917
1623561c-f008-4531-86f8-a372810430ac,fed1223c-9041-4484-928e-e96c55bc8658,1761218856685236076,2.235413,-0.934601,1.226425,-0.016602,-0.564453,0.859375,1.7947488639504134,-33.90008089397179,98.01061402796816,0.6308618783950806,-0.2025299370288849,-0.21018964052200317,0.7188971042633057
1623561c-f008-4531-86f8-a372810430ac,fed1223c-9041-4484-928e-e96c55bc8658,1761218856693254076,2.357483,-0.507355,0.921249,-0.026855,-0.563965,0.858887,1.7912746120259575,-33.87191343214787,97.9551853539376,0.6312474012374878,-0.2024562954902649,-0.20993266999721527,0.7186545729637146
1623561c-f008-4531-86f8-a372810430ac,fed1223c-9041-4484-928e-e96c55bc8658,1761218856701272076,2.540588,-0.080109,0.616074,-0.01709,-0.557617,0.84668,1.7852939473026561,-33.84540971341254,97.89698439653152,0.6316429972648621,-0.20238089561462402,-0.2096952497959137,0.7183974981307983
1623561c-f008-4531-86f8-a372810430ac,fed1223c-9041-4484-928e-e96c55bc8658,1761218856709290076,2.904892,0.162125,0.249863,-0.020508,-0.562988,0.848144,1.7840803147754527,-33.81824193636388,97.82556840450886,0.632131040096283,-0.20235566794872284,-0.2094041258096695,0.7180602550506592
1623561c-f008-4531-86f8-a372810430ac,fed1223c-9041-4484-928e-e96c55bc8658,1761218856719952076,2.235413,0.408173,0.310898,-0.018555,-0.563965,0.835938,1.7837337189836358,-33.795987799377336,97.73876961699195,0.6327090859413147,-0.20239049196243286,-0.20911218225955963,0.7176263332366943
1623561c-f008-4531-86f8-a372810430ac,fed1223c-9041-4484-928e-e96c55bc8658,1761218856730614076,1.806259,-0.020981,0.066757,-0.025879,-0.557617,0.846191,1.7815550041361898,-33.775910723899415,97.72567435311605,0.6328186392784119,-0.20229105651378632,-0.20897431671619415,0.7175979614257812
1623561c-f008-4531-86f8-a372810430ac,fed1223c-9041-4484-928e-e96c55bc8658,1761218856741276076,1.686096,-0.202179,0.005722,-0.031738,-0.548828,0.839355,1.7800245265944892,-33.76052982482924,97.67976367231701,0.6331274509429932,-0.20228110253810883,-0.20880462229251862,0.717377781867981
1623561c-f008-4531-86f8-a372810430ac,fed1223c-9041-4484-928e-e96c55bc8658,1761218856751963076,0.648499,0.102997,0.005722,-0.032227,-0.568848,0.840332,1.7831911978214168,-33.76148849642916,97.57637551446636,0.6337786912918091,-0.20249445736408234,-0.20861056447029114,0.7167987823486328
1623561c-f008-4531-86f8-a372810430ac,fed1223c-9041-4484-928e-e96c55bc8658,1761218856762651076,0.221252,-0.202179,-0.177383,-0.033203,-0.572754,0.847656,1.7856722325533976,-33.75989897706283,97.49498074112012,0.6342946887016296,-0.20264938473701477,-0.20844292640686035,0.7163472175598145
1623561c-f008-4531-86f8-a372810430ac,fed1223c-9041-4484-928e-e96c55bc8658,1761218856773339076,-0.75531,-0.44632,0.310898,-0.033691,-0.552734,0.847656,1.787898881207904,-33.7591643566455,97.44865591171184,0.634589433670044,-0.2027435302734375,-0.20834402740001678,0.7160882353782654
1623561c-f008-4531-86f8-a372810430ac,fed1223c-9041-4484-928e-e96c55bc8658,1761218856784023076,-1.184464,-0.631332,0.616074,-0.031738,-0.558594,0.842285,1.783978948327381,-33.764045944863255,97.37248582888164,0.6350504755973816,-0.2028842717409134,-0.20826168358325958,0.7156634330749512
1623561c-f008-4531-86f8-a372810430ac,fed1223c-9041-4484-928e-e96c55bc8658,1761218856794710076,-1.487732,-0.56839,0.371933,-0.01709,-0.574707,0.843262,1.7811615779573131,-33.779963348158006,97.30962478734342,0.6354127526283264,-0.20306822657585144,-0.20826616883277893,0.7152882814407349
1623561c-f008-4531-86f8-a372810430ac,fed1223c-9041-4484-928e-e96c55bc8658,1761218856805397076,-1.976013,-0.44632,0.799179,-0.022461,-0.566406,0.851074,1.7790953490006227,-33.79682435886581,97.31625871734647,0.6353409886360168,-0.20313577353954315,-0.20839551091194153,0.715295135974884
1623561c-f008-4531-86f8-a372810430ac,fed1223c-9041-4484-928e-e96c55bc8658,1761218856813391076,-2.832413,-0.448227,0.799179,-0.020996,-0.562012,0.850586,1.7794791001488377,-33.81945248012525,97.29515745827807,0.6354376673698425,-0.20330069959163666,-0.20849837362766266,0.7151323556900024
1623561c-f008-4531-86f8-a372810430ac,fed1223c-9041-4484-928e-e96c55bc8658,1761218856821387076,-3.257751,-0.44632,0.677109,-0.038574,-0.584473,0.84082,1.780223188067057,-33.85071274491884,97.24245955024296,0.6357184052467346,-0.2035728096961975,-0.2085973620414734,0.7147763967514038
1623561c-f008-4531-86f8-a372810430ac,fed1223c-9041-4484-928e-e96c55bc8658,1761218856829383076,-3.379822,-0.385284,0.494003,-0.019531,-0.570801,0.854004,1.776396675305431,-33.88056499622045,97.2226807716494,0.6357875466346741,-0.20374883711338043,-0.20877118408679962,0.7146139144897461
1623561c-f008-4531-86f8-a372810430ac,fed1223c-9041-4484-928e-e96c55bc8658,1761218856837379076,-3.379822,-0.080109,0.310898,-0.017578,-0.570801,0.862305,1.773044371061305,-33.910401064169264,97.2535827690306,0.6355414390563965,-0.2038353532552719,-0.20903237164020538,0.714731752872467
1623561c-f008-4531-86f8-a372810430ac,fed1223c-9041-4484-928e-e96c55bc8658,1761218856848010076,-2.952576,-0.080109,0.005722,-0.019531,-0.58252,0.863769,1.7690226540635496,-33.93778455543068,97.20641487781322,0.6357848048210144,-0.20404665172100067,-0.20914292335510254,0.7144225239753723
1623561c-f008-4531-86f8-a372810430ac,fed1223c-9041-4484-928e-e96c55bc8658,1761218856858641076,-2.466202,-0.326157,-0.116348,-0.010254,-0.579102,0.878418,1.7595213193379535,-33.9588976317154,97.13680806460759,0.6361677646636963,-0.20423045754432678,-0.20920434594154358,0.7140108942985535
1623561c-f008-4531-86f8-a372810430ac,fed1223c-9041-4484-928e-e96c55bc8658,1761218856869272076,-1.731873,-0.141144,-0.299454,-0.019531,-0.586426,0.869141,1.747017688282556,-33.97791024832909,97.0555792427729,0.6366206407546997,-0.20440536737442017,-0.2092483639717102,0.7135441303253174
1623561c-f008-4531-86f8-a372810430ac,fed1223c-9041-4484-928e-e96c55bc8658,1761218856877265076,-1.060486,-0.202179,-0.909805,-0.020508,-0.583008,0.868652,1.7341935330491949,-33.98751983015789,96.8828108987688,0.6376569867134094,-0.20469379425048828,-0.2090715616941452,0.7125872373580933
1623561c-f008-4531-86f8-a372810430ac,fed1223c-9041-4484-928e-e96c55bc8658,1761218856885261076,-0.816345,-0.44632,-1.092911,-0.025391,-0.570312,0.867676,1.7287318008508934,-33.986301447751636,96.81611580392078,0.6380636096000671,-0.20477478206157684,-0.2089751660823822,0.7122281789779663
1623561c-f008-4531-86f8-a372810430ac,fed1223c-9041-4484-928e-e96c55bc8658,1761218856893257076,0.038147,-1.056671,-0.665665,-0.014648,-0.573242,0.877441,1.7261014995087596,-33.98113008272436,96.77305295997496,0.6383346915245056,-0.20480844378471375,-0.2088804543018341,0.7120033502578735
1623561c-f008-4531-86f8-a372810430ac,fed1223c-9041-4484-928e-e96c55bc8658,1761218856901253076,-0.083923,-1.422882,-0.7267,-0.022461,-0.584961,0.869629,1.7091911452894948,-33.9777682305256,96.7513142362509,0.6384443044662476,-0.20472446084022522,-0.20891475677490234,0.7119191884994507
1623561c-f008-4531-86f8-a372810430ac,fed1223c-9041-4484-928e-e96c55bc8658,1761218856911916076,0.221252,-1.239777,-0.60463,-0.027832,-0.566406,0.86084,1.6942526895702876,-33.971259240170376,96.6650955894042,0.638962984085083,-0.20475292205810547,-0.2088032215833664,0.7114782333374023
1623561c-f008-4531-86f8-a372810430ac,fed1223c-9041-4484-928e-e96c55bc8658,1761218856922579076,0.28038,-1.607895,-0.360489,-0.026855,-0.588379,0.861816,1.6836973841436307,-33.96875447538622,96.6121768882797,0.6392762660980225,-0.20476996898651123,-0.2087518572807312,0.7112069725990295
1623561c-f008-4531-86f8-a372810430ac,fed1223c-9041-4484-928e-e96c55bc8658,1761218856933242076,0.587463,-1.728058,0.066757,-0.020508,-0.574707,0.863769,1.670816515434885,-33.96282987152662,96.61277910347006,0.6392585635185242,-0.2046561986207962,-0.2087877243757248,0.7112451195716858
1623561c-f008-4531-86f8-a372810430ac,fed1223c-9041-4484-928e-e96c55bc8658,1761218856943914076,0.221252,-0.56839,0.799179,-0.030273,-0.574219,0.850098,1.6657364119289293,-33.9612314131371,96.51672006151415,0.6398478746414185,-0.20479080080986023,-0.20863446593284607,0.7107212543487549
1623561c-f008-4531-86f8-a372810430ac,fed1223c-9041-4484-928e-e96c55bc8658,1761218856954588076,0.406265,-0.509262,1.104355,-0.032227,-0.564453,0.851562,1.6663679415010197,-33.95651366395638,96.41269015789555,0.6405015587806702,-0.20495791733264923,-0.2084154635667801,0.7101483345031738
1623561c-f008-4531-86f8-a372810430ac,fed1223c-9041-4484-928e-e96c55bc8658,1761218856965262076,0.221252,-0.44632,1.348495,-0.023437,-0.569336,0.847168,1.6662172472548196,-33.95702500332078,96.31679788772206,0.6410945057868958,-0.20513416826725006,-0.20824791491031647,0.7096112966537476
1623561c-f008-4531-86f8-a372810430ac,fed1223c-9041-4484-928e-e96c55bc8658,1761218856975899076,0.03624,-0.509262,1.592636,-0.021973,-0.562988,0.844238,1.671934156367319,-33.953904866189475,96.25243138586187,0.6415084004402161,-0.20526918768882751,-0.2080811858177185,0.7092470526695251
1623561c-f008-4531-86f8-a372810430ac,fed1223c-9041-4484-928e-e96c55bc8658,1761218856986536076,-0.267029,-0.812531,1.836777,-0.016113,-0.578613,0.841797,1.6722473457249352,-33.956688461312766,96.21684607550104,0.641724705696106,-0.20535117387771606,-0.20803304016590118,0.7090417146682739
1623561c-f008-4531-86f8-a372810430ac,fed1223c-9041-4484-928e-e96c55bc8658,1761218856997173076,-0.513077,-0.936508,2.141953,-0.014648,-0.557129,0.858398,1.6742967518729395,-33.95669457774325,96.22288821626164,0.6416910290718079,-0.20535291731357574,-0.20803242921829224,0.7090718746185303
1623561c-f008-4531-86f8-a372810430ac,fed1223c-9041-4484-928e-e96c55bc8658,1761218857005201076,-0.696182,-0.814438,2.141953,-0.016602,-0.562988,0.863769,1.6729373485175976,-33.955427024811016,96.2877930824908,0.6412888765335083,-0.20521961152553558,-0.20814840495586395,0.7094401717185974
1623561c-f008-4531-86f8-a372810430ac,fed1223c-9041-4484-928e-e96c55bc8658,1761218857013228076,-0.75531,-0.629425,1.836777,-0.01709,-0.561523,0.840332,1.6711392822471607,-33.95940755119645,96.26086888322718,0.6414458751678467,-0.20527945458889008,-0.20813508331775665,0.709284782409668
1623561c-f008-4531-86f8-a372810430ac,fed1223c-9041-4484-928e-e96c55bc8658,1761218857021255076,-0.875473,-0.509262,1.958847,-0.015137,-0.583008,0.843262,1.6725535626214443,-33.969720750002224,96.22539191366043,0.6416513919830322,-0.20540982484817505,-0.2081279307603836,0.7090631723403931
1623561c-f008-4531-86f8-a372810430ac,fed1223c-9041-4484-928e-e96c55bc8658,1761218857029282076,-1.060486,-0.385284,1.653671,-0.022949,-0.573242,0.847656,1.6763735699399742,-33.97794818856464,96.19722150143878,0.6418193578720093,-0.20553022623062134,-0.2081073373556137,0.7088823318481445
1623561c-f008-4531-86f8-a372810430ac,fed1223c-9041-4484-928e-e96c55bc8658,1761218857039950076,-0.999451,-0.263214,1.348495,-0.009277,-0.583496,0.863281,1.6746759543404868,-33.98663443337118,96.15883247379142,0.6420397162437439,-0.20563764870166779,-0.20810213685035706,0.7086530327796936
1623561c-f008-4531-86f8-a372810430ac,fed1223c-9041-4484-928e-e96c55bc8658,1761218857050618076,-0.87738,-0.202179,0.799179,-0.010742,-0.572266,0.865234,1.673100870767488,-33.992819768766275,96.10903655659025,0.6423347592353821,-0.2057526558637619,-0.2080601304769516,0.7083645462989807
1623561c-f008-4531-86f8-a372810430ac,fed1223c-9041-4484-928e-e96c55bc8658,1761218857061286076,-0.87738,0.408173,0.432968,-0.01416,-0.581055,0.859863,1.6654251068585995,-33.9892992293927,96.01831718106645,0.6428871154785156,-0.20585033297538757,-0.20791831612586975,0.7078765630722046
1623561c-f008-4531-86f8-a372810430ac,fed1223c-9041-4484-928e-e96c55bc8658,1761218857071943076,-0.450134,0.652313,0.066757,-0.022949,-0.576172,0.853516,1.6611950575430239,-33.98567599971585,95.94065525955071,0.6433649063110352,-0.2059449404478073,-0.20777995884418488,0.7074554562568665
1623561c-f008-4531-86f8-a372810430ac,fed1223c-9041-4484-928e-e96c55bc8658,1761218857082601076,-0.572205,1.079559,-0.116348,-0.002441,-0.568848,0.856934,1.6512764567085818,-33.98388317531052,95.8644971899546,0.6438198685646057,-0.2060118019580841,-0.2076876163482666,0.7070491313934326
1623561c-f008-4531-86f8-a372810430ac,fed1223c-9041-4484-928e-e96c55bc8658,1761218857093259076,-0.63324,0.896454,-0.421524,-0.02002,-0.581055,0.851562,1.6457791316122694,-33.98380304447566,95.82703030718156,0.6440411806106567,-0.20604534447193146,-0.20765064656734467,0.7068486213684082
1623561c-f008-4531-86f8-a372810430ac,fed1223c-9041-4484-928e-e96c55bc8658,1761218857103969076,-0.387192,1.138687,-0.84877,-0.015137,-0.566895,0.85498,1.6444837381764472,-33.98348550458451,95.84787405656051,0.6439107656478882,-0.20599782466888428,-0.2076934278011322,0.7069686651229858
1623561c-f008-4531-86f8-a372810430ac,fed1223c-9041-4484-928e-e96c55bc8658,1761218857114680076,-0.083923,1.018524,-1.153946,-0.016602,-0.569824,0.864746,1.646248197510682,-33.98544035020924,95.82254454344934,0.6440670490264893,-0.20606549084186554,-0.20765012502670288,0.7068192958831787
1623561c-f008-4531-86f8-a372810430ac,fed1223c-9041-4484-928e-e96c55bc8658,1761218857125391076,0.463486,1.443863,-1.276016,-0.027832,-0.58252,0.861816,1.6528540238747027,-33.983415364942466,95.73401457878307,0.6446281671524048,-0.20625528693199158,-0.20744112133979797,0.7063136100769043
1623561c-f008-4531-86f8-a372810430ac,fed1223c-9041-4484-928e-e96c55bc8658,1761218857136004076,0.648499,0.774384,-1.581192,-0.031738,-0.574219,0.87207,1.6569234998007984,-33.96718588243315,95.58729337036377,0.6455656886100769,-0.20645520091056824,-0.20705321431159973,0.7055124044418335
1623561c-f008-4531-86f8-a372810430ac,fed1223c-9041-4484-928e-e96c55bc8658,1761218857146617076,0.829697,1.138687,-1.703262,-0.023437,-0.570801,0.857422,1.6556846386475392,-33.95765175162231,95.54191131073298,0.6458582878112793,-0.2064763605594635,-0.20691926777362823,0.7052776217460632
1623561c-f008-4531-86f8-a372810430ac,fed1223c-9041-4484-928e-e96c55bc8658,1761218857157230076,0.892639,1.140594,-1.520157,-0.021973,-0.55957,0.853516,1.6548259855845742,-33.94579403055542,95.45319133169062,0.6464218497276306,-0.20656494796276093,-0.20669066905975342,0.7048023343086243
1623561c-f008-4531-86f8-a372810430ac,fed1223c-9041-4484-928e-e96c55bc8658,1761218857165234076,1.197815,1.262665,-1.886368,-0.030273,-0.57373,0.85791,1.654310997820277,-33.93449778179987,95.37315220087174,0.6469314098358154,-0.20664294064044952,-0.2064792513847351,0.7043737769126892
1623561c-f008-4531-86f8-a372810430ac,fed1223c-9041-4484-928e-e96c55bc8658,1761218857173241076,1.502991,1.384735,-2.313614,-0.02002,-0.563477,0.874023,1.649593918463867,-33.92006534582781,95.31423129999389,0.6473084688186646,-0.2066393345594406,-0.2063102275133133,0.704077959060669
1623561c-f008-4531-86f8-a372810430ac,fed1223c-9041-4484-928e-e96c55bc8658,1761218857181248076,1.928329,1.688004,-2.374649,-0.012207,-0.580566,0.860352,1.6418474759259003,-33.903337225689,95.24584688230861,0.6477417945861816,-0.2066211700439453,-0.2061271071434021,0.7037383913993835
1623561c-f008-4531-86f8-a372810430ac,fed1223c-9041-4484-928e-e96c55bc8658,1761218857189255076,2.725601,1.138687,-2.679825,-0.009277,-0.574707,0.877441,1.633608158406994,-33.88413886906235,95.1643396063692,0.648258626461029,-0.2066095769405365,-0.2059079259634018,0.7033299803733826
1623561c-f008-4531-86f8-a372810430ac,fed1223c-9041-4484-928e-e96c55bc8658,1761218857199936076,2.845764,1.384735,-2.985001,-0.013184,-0.582031,0.882812,1.621261311262906,-33.85488533780287,95.11044928839131,0.648614764213562,-0.20646658539772034,-0.20569971203804016,0.7031046152114868
1623561c-f008-4531-86f8-a372810430ac,fed1223c-9041-4484-928e-e96c55bc8658,1761218857210617076,3.517151,1.384735,-3.046036,-0.020508,-0.569824,0.875977,1.6136774119740382,-33.8225217271829,95.03765612091593,0.6491003632545471,-0.206369087100029,-0.20541143417358398,0.7027693390846252
1623561c-f008-4531-86f8-a372810430ac,fed1223c-9041-4484-928e-e96c55bc8658,1761218857221298076,3.639221,1.384735,-3.046036,-0.028809,-0.562012,0.872559,1.6075303974835184,-33.785264277836006,94.93227005214067,0.6497960686683655,-0.20631089806556702,-0.2050262987613678,0.70225590467453
1623561c-f008-4531-86f8-a372810430ac,fed1223c-9041-4484-928e-e96c55bc8658,1761218857231933076,4.125595,1.138687,-2.923965,-0.014648,-0.573242,0.859863,1.589640840187251,-33.71063463062281,94.73530527166618,0.6510918736457825,-0.20613336563110352,-0.2043127566576004,0.7013152837753296
1623561c-f008-4531-86f8-a372810430ac,fed1223c-9041-4484-928e-e96c55bc8658,1761218857242568076,4.188538,1.079559,-3.107071,-0.021973,-0.571289,0.85791,1.582105148074012,-33.67276025901699,94.62245839658623,0.6518304944038391,-0.20607487857341766,-0.20391912758350372,0.7007607817649841
1623561c-f008-4531-86f8-a372810430ac,fed1223c-9041-4484-928e-e96c55bc8658,1761218857253203076,4.127502,1.3237,-2.86293,-0.024902,-0.563477,0.855469,1.5796901566321406,-33.634685967357505,94.51682582402067,0.6525339484214783,-0.2060331404209137,-0.2035083770751953,0.7002376317977905
1623561c-f008-4531-86f8-a372810430ac,fed1223c-9041-4484-928e-e96c55bc8658,1761218857261238076,3.393173,1.138687,-2.374649,-0.039551,-0.553711,0.854492,1.5850034303993052,-33.595864093724344,94.42435354277504,0.6531714797019958,-0.20601043105125427,-0.20307286083698273,0.699776291847229
1623561c-f008-4531-86f8-a372810430ac,fed1223c-9041-4484-928e-e96c55bc8658,1761218857269274076,2.965927,1.138687,-2.069473,-0.033203,-0.546387,0.845703,1.5855592355933086,-33.56265981280216,94.41486715985234,0.6532844305038452,-0.2058430314064026,-0.20284830033779144,0.6997852921485901
1623561c-f008-4531-86f8-a372810430ac,fed1223c-9041-4484-928e-e96c55bc8658,1761218857277310076,2.174377,1.079559,-2.252579,-0.036621,-0.557617,0.852051,1.5885446189151935,-33.53450863140892,94.39698101299172,0.6534447073936462,-0.20573382079601288,-0.20262591540813446,0.69973224401474
1623561c-f008-4531-86f8-a372810430ac,fed1223c-9041-4484-928e-e96c55bc8658,1761218857285346076,1.319885,1.018524,-1.703262,-0.037109,-0.553711,0.842773,1.5932225308942383,-33.51564620478411,94.34709224815434,0.6537882089614868,-0.2057439088821411,-0.20239360630512238,0.6994756460189819
1623561c-f008-4531-86f8-a372810430ac,fed1223c-9041-4484-928e-e96c55bc8658,1761218857296149076,1.197815,0.347137,-1.337051,-0.041504,-0.549805,0.856934,1.5987344952857456,-33.50064847299658,94.3368495027514,0.6538848280906677,-0.20571084320545197,-0.20225150883197784,0.6994361281394958
1623561c-f008-4531-86f8-a372810430ac,fed1223c-9041-4484-928e-e96c55bc8658,1761218857306952076,0.463486,-0.200272,-0.60463,-0.030273,-0.547852,0.862305,1.600528912045247,-33.49310503925094,94.31326066912847,0.6540442109107971,-0.20572073757648468,-0.20215252041816711,0.6993128657341003
1623561c-f008-4531-86f8-a372810430ac,fed1223c-9041-4484-928e-e96c55bc8658,1761218857317755076,0.038147,-0.080109,-0.116348,-0.031738,-0.549805,0.854004,1.6070205148791192,-33.486859994474464,94.26111562879568,0.6543839573860168,-0.20581696927547455,-0.20198342204093933,0.6990154981613159
1623561c-f008-4531-86f8-a372810430ac,fed1223c-9041-4484-928e-e96c55bc8658,1761218857325635076,-0.696182,-0.753403,0.249863,-0.030273,-0.545898,0.85498,1.6177149396827104,-33.4711064202972,94.15383428332973,0.6550825238227844,-0.20598191022872925,-0.20163273811340332,0.698413610458374
1623561c-f008-4531-86f8-a372810430ac,fed1223c-9041-4484-928e-e96c55bc8658,1761218857333515076,-0.75531,-0.629425,0.249863,-0.02832,-0.562988,0.857422,1.6237568538566034,-33.4666618451272,94.1259541922807,0.6552702784538269,-0.2060426026582718,-0.20152077078819275,0.6982518434524536
1623561c-f008-4531-86f8-a372810430ac,fed1223c-9041-4484-928e-e96c55bc8658,1761218857341395076,-0.450134,-0.934601,0.860214,-0.046387,-0.555664,0.844238,1.6299079993537346,-33.47273532789467,94.09236681904417,0.6554758548736572,-0.20617355406284332,-0.20146247744560242,0.6980370283126831
1623561c-f008-4531-86f8-a372810430ac,fed1223c-9041-4484-928e-e96c55bc8658,1761218857349275076,-1.363754,-0.814438,1.16539,-0.024414,-0.552734,0.858398,1.6305961350048943,-33.48237511607758,94.04562832919856,0.6557460427284241,-0.2063145637512207,-0.20143359899520874,0.6977498531341553
1623561c-f008-4531-86f8-a372810430ac,fed1223c-9041-4484-928e-e96c55bc8658,1761218857357267076,-1.914978,-0.263214,1.470566,-0.028809,-0.570801,0.851562,1.6398518277102314,-33.493477444107725,94.08285189010017,0.655517578125,-0.20636841654777527,-0.2015158236026764,0.6979248523712158
1623561c-f008-4531-86f8-a372810430ac,fed1223c-9041-4484-928e-e96c55bc8658,1761218857365259076,-2.037048,-0.141144,1.409531,-0.033203,-0.560547,0.861816,1.6460341214891694,-33.507596052141984,94.08913781044112,0.6554672122001648,-0.20647504925727844,-0.20157846808433533,0.6979224681854248
1623561c-f008-4531-86f8-a372810430ac,fed1223c-9041-4484-928e-e96c55bc8658,1761218857373251076,-2.281189,-0.69046,1.348495,-0.028809,-0.559082,0.865723,1.6510028278766904,-33.52395314497011,94.03762142384318,0.6557630300521851,-0.20668865740299225,-0.20155757665634155,0.697587251663208
1623561c-f008-4531-86f8-a372810430ac,fed1223c-9041-4484-928e-e96c55bc8658,1761218857381243076,-2.344131,-0.688553,1.714706,-0.024902,-0.569824,0.854492,1.6553694735712745,-33.5435728335166,93.99621486811839,0.6559907793998718,-0.20689931511878967,-0.20157824456691742,0.6973046660423279
1623561c-f008-4531-86f8-a372810430ac,fed1223c-9041-4484-928e-e96c55bc8658,1761218857390845076,-2.344131,-0.871658,1.714706,-0.010742,-0.55127,0.852539,1.65456463957584,-33.56212309588368,93.9703724970518,0.6561163663864136,-0.20704510807991028,-0.2016499638557434,0.6971224546432495
1623561c-f008-4531-86f8-a372810430ac,fed1223c-9041-4484-928e-e96c55bc8658,1761218857400447076,-2.586365,-0.873566,1.470566,-0.016602,-0.564941,0.863769,1.6558973886271608,-33.58323168086231,93.92125189516894,0.6563830375671387,-0.20725944638252258,-0.20168296992778778,0.6967980265617371
1623561c-f008-4531-86f8-a372810430ac,fed1223c-9041-4484-928e-e96c55bc8658,1761218857410049076,-2.52533,-0.69046,1.348495,-0.013672,-0.566895,0.864258,1.6526267558152983,-33.60365780057574,93.86235107691618,0.6567019820213318,-0.20745918154716492,-0.20172031223773956,0.6964271664619446
1623561c-f008-4531-86f8-a372810430ac,fed1223c-9041-4484-928e-e96c55bc8658,1761218857419651076,-2.403259,-0.44632,1.16539,-0.018066,-0.56543,0.865723,1.65279194355139,-33.61824086768403,93.79741484118138,0.6570729613304138,-0.2076573222875595,-0.20169107615947723,0.6960265040397644
1623561c-f008-4531-86f8-a372810430ac,fed1223c-9041-4484-928e-e96c55bc8658,1761218857429253076,-1.914978,-0.080109,1.16539,-0.019043,-0.580566,0.860352,1.6541667447543105,-33.635210923620654,93.784299824651,0.6571272611618042,-0.20778517425060272,-0.2017633318901062,0.6959161162376404
1623561c-f008-4531-86f8-a372810430ac,fed1223c-9041-4484-928e-e96c55bc8658,1761218857438852076,-1.731873,-0.385284,0.982285,-0.018555,-0.563965,0.867676,1.6507141739226705,-33.64733501604341,93.76418631946262,0.6572234630584717,-0.2078685164451599,-0.20182088017463684,0.6957836747169495
1623561c-f008-4531-86f8-a372810430ac,fed1223c-9041-4484-928e-e96c55bc8658,1761218857448451076,-1.609802,-0.202179,0.555038,-0.01123,-0.558105,0.865723,1.6474141076875204,-33.65541947175878,93.72374694342729,0.6574499011039734,-0.2079656571149826,-0.2018159180879593,0.6955420970916748
1623561c-f008-4531-86f8-a372810430ac,fed1223c-9041-4484-928e-e96c55bc8658,1761218857458050076,-1.61171,-0.020981,-0.116348,-0.01709,-0.566406,0.854492,1.642751108240094,-33.669071814033664,93.70184136569347,0.6575522422790527,-0.2080535590648651,-0.20188644528388977,0.6953985691070557
1623561c-f008-4531-86f8-a372810430ac,fed1223c-9041-4484-928e-e96c55bc8658,1761218857467649076,-1.306534,0.162125,-0.055313,-0.024414,-0.558105,0.858887,1.642183188351166,-33.6667774440896,93.71543760362115,0.6574724912643433,-0.20801310241222382,-0.20190034806728363,0.695482075214386
1623561c-f008-4531-86f8-a372810430ac,fed1223c-9041-4484-928e-e96c55bc8658,1761218857477248076,-1.609802,-0.080109,-0.116348,-0.032227,-0.570312,0.849121,1.6432516288288892,-33.68167671995385,93.66463608588026,0.6577581763267517,-0.208193838596344,-0.20189310610294342,0.6951597929000854
1623561c-f008-4531-86f8-a372810430ac,fed1223c-9041-4484-928e-e96c55bc8658,1761218857485244076,-1.487732,-0.56839,-0.421524,-0.019531,-0.584961,0.847656,1.6347280477407484,-33.69581715960682,93.58966641214774,0.6581745743751526,-0.20835468173027039,-0.20189224183559418,0.6947175860404968
1623561c-f008-4531-86f8-a372810430ac,fed1223c-9041-4484-928e-e96c55bc8658,1761218857493240076,-1.609802,-0.324249,-0.421524,-0.028809,-0.580566,0.853516,1.6279705416829797,-33.70835225758152,93.50038314951006,0.6586831212043762,-0.20854239165782928,-0.20184524357318878,0.6941927075386047
1623561c-f008-4531-86f8-a372810430ac,fed1223c-9041-4484-928e-e96c55bc8658,1761218857501236076,-1.914978,-0.019073,-0.421524,-0.015625,-0.569824,0.858887,1.6224615068711041,-33.72229082477768,93.43782730467031,0.6590293049812317,-0.20869863033294678,-0.2018481343984604,0.6938162446022034
1623561c-f008-4531-86f8-a372810430ac,fed1223c-9041-4484-928e-e96c55bc8658,1761218857509232076,-1.792908,-0.56839,-0.60463,-0.021973,-0.563965,0.859375,1.6110170372148351,-33.73595075867054,93.38729114773359,0.6592925190925598,-0.20879626274108887,-0.2019052654504776,0.6935200691223145
1623561c-f008-4531-86f8-a372810430ac,fed1223c-9041-4484-928e-e96c55bc8658,1761218857519926076,-1.672745,-0.509262,-0.299454,-0.028809,-0.582031,0.85791,1.6102847278370127,-33.74415559945031,93.35762305729186,0.6594572067260742,-0.2088908851146698,-0.20190545916557312,0.6933349370956421
1623561c-f008-4531-86f8-a372810430ac,fed1223c-9041-4484-928e-e96c55bc8658,1761218857530620076,-1.304626,-0.44632,-0.116348,-0.018555,-0.57959,0.856934,1.6071795190986686,-33.75036313740121,93.33162400053361,0.6595987677574158,-0.20895333588123322,-0.20191378891468048,0.6931789517402649
1623561c-f008-4531-86f8-a372810430ac,fed1223c-9041-4484-928e-e96c55bc8658,1761218857541314076,-0.816345,-0.69046,0.188828,-0.033203,-0.572266,0.860352,1.612092403392796,-33.74956575830941,93.31468781991634,0.6597111821174622,-0.2090083360671997,-0.20184975862503052,0.6930740475654602
1623561c-f008-4531-86f8-a372810430ac,fed1223c-9041-4484-928e-e96c55bc8658,1761218857551937076,0.038147,-1.117706,0.799179,-0.033691,-0.573242,0.864746,1.6160514792356804,-33.74700536930565,93.26019697680456,0.6600518822669983,-0.20911359786987305,-0.20171193778514862,0.6927580237388611
1623561c-f008-4531-86f8-a372810430ac,fed1223c-9041-4484-928e-e96c55bc8658,1761218857562562076,0.038147,-1.056671,0.860214,-0.02832,-0.571289,0.875,1.6162328084830773,-33.74756464114805,93.22675772760891,0.6602534055709839,-0.20917676389217377,-0.20165327191352844,0.6925638914108276
1623561c-f008-4531-86f8-a372810430ac,fed1223c-9041-4484-928e-e96c55bc8658,1761218857573187076,0.709534,-1.239777,1.28746,-0.027344,-0.571777,0.874512,1.6171654075757833,-33.744326071702645,93.24020293076698,0.6601791381835938,-0.20914024114608765,-0.20165270566940308,0.6926459074020386
1623561c-f008-4531-86f8-a372810430ac,fed1223c-9041-4484-928e-e96c55bc8658,1761218857581392076,0.768661,-0.814438,1.653671,-0.027832,-0.568848,0.866211,1.6188820468669363,-33.7279235319343,93.17208244120434,0.660620927810669,-0.20917671918869019,-0.20141854882240295,0.6922817826271057
1623561c-f008-4531-86f8-a372810430ac,fed1223c-9041-4484-928e-e96c55bc8658,1761218857589598076,1.13678,-0.44632,1.470566,-0.027832,-0.57666,0.872559,1.6253889925219183,-33.71568183116825,93.15787860817109,0.6607384085655212,-0.20917102694511414,-0.20128054916858673,0.6922115683555603
1623561c-f008-4531-86f8-a372810430ac,fed1223c-9041-4484-928e-e96c55bc8658,1761218857597804076,1.441956,-0.080109,1.653671,-0.01416,-0.582031,0.855469,1.6274095091476688,-33.70176723334869,93.15107431575228,0.6608060598373413,-0.20911568403244019,-0.20117174088954926,0.6921952962875366
1623561c-f008-4531-86f8-a372810430ac,fed1223c-9041-4484-928e-e96c55bc8658,1761218857606010076,1.869202,-0.202179,1.04332,-0.013672,-0.585938,0.871094,1.6246785197390854,-33.68743324883985,93.15471404049,0.660802960395813,-0.20901085436344147,-0.20110683143138885,0.6922488808631897
1623561c-f008-4531-86f8-a372810430ac,fed1223c-9041-4484-928e-e96c55bc8658,1761218857616437076,1.928329,-0.265121,1.28746,-0.005371,-0.576172,0.875,1.6199066762459327,-33.665077128207706,93.08870252425834,0.661230206489563,-0.20897002518177032,-0.200877845287323,0.6919196248054504
1623561c-f008-4531-86f8-a372810430ac,fed1223c-9041-4484-928e-e96c55bc8658,1761218857626864076,2.052307,-0.385284,0.738144,-0.000977,-0.565918,0.864258,1.6137203328785643,-33.64446552462652,93.05240569815494,0.6614725589752197,-0.20887838304042816,-0.20072191953659058,0.6917608976364136
1623561c-f008-4531-86f8-a372810430ac,fed1223c-9041-4484-928e-e96c55bc8658,1761218857637291076,2.113342,-0.56839,0.738144,-0.019531,-0.56543,0.861328,1.6095882272554503,-33.621663430559444,93.07547059802145,0.6613637208938599,-0.208682581782341,-0.20064900815486908,0.6919452548027039
1623561c-f008-4531-86f8-a372810430ac,fed1223c-9041-4484-928e-e96c55bc8658,1761218857647929076,2.357483,-0.995636,0.677109,-0.021973,-0.572754,0.858398,1.6045578412900692,-33.59861540170675,93.03261016852726,0.6616517305374146,-0.20859533548355103,-0.20045973360538483,0.6917511224746704
1623561c-f008-4531-86f8-a372810430ac,fed1223c-9041-4484-928e-e96c55bc8658,1761218857658567076,2.662659,-1.117706,0.494003,0.005371,-0.576172,0.868652,1.5904745818737915,-33.57802405216938,93.00537666669788,0.6618254780769348,-0.20844009518623352,-0.20036621391773224,0.6916587948799133
1623561c-f008-4531-86f8-a372810430ac,fed1223c-9041-4484-928e-e96c55bc8658,1761218857669205076,2.599716,-0.997543,0.432968,-0.02002,-0.571777,0.85791,1.580923581902258,-33.55358853428075,93.02239337332162,0.6617463827133179,-0.20821280777454376,-0.20030362904071808,0.6918210387229919
1623561c-f008-4531-86f8-a372810430ac,fed1223c-9041-4484-928e-e96c55bc8658,1761218857679902076,2.660751,-0.509262,0.432968,-0.01416,-0.557129,0.862305,1.563139227228784,-33.5002038812022,92.97158209829064,0.6621100902557373,-0.20788845419883728,-0.19998930394649506,0.6916616559028625
1623561c-f008-4531-86f8-a372810430ac,fed1223c-9041-4484-928e-e96c55bc8658,1761218857690597076,2.416611,-0.326157,0.799179,-0.019043,-0.558105,0.854492,1.5606902485612935,-33.4719514513011,92.90788213360608,0.6625367999076843,-0.20782288908958435,-0.19971609115600586,0.691351592540741
1623561c-f008-4531-86f8-a372810430ac,fed1223c-9041-4484-928e-e96c55bc8658,1761218857701292076,2.418518,-0.080109,0.616074,-0.015625,-0.562012,0.854004,1.5631888013289326,-33.45043826882972,92.85445299678288,0.6628988981246948,-0.20780766010284424,-0.19947396218776703,0.6910789608955383
1623561c-f008-4531-86f8-a372810430ac,fed1223c-9041-4484-928e-e96c55bc8658,1761218857709274076,2.052307,0.774384,0.616074,-0.029785,-0.547852,0.851074,1.5701300794179762,-33.427795249363385,92.82330258512762,0.6631361246109009,-0.20777380466461182,-0.19923970103263855,0.6909291744232178
1623561c-f008-4531-86f8-a372810430ac,fed1223c-9041-4484-928e-e96c55bc8658,1761218857717255076,2.357483,0.652313,0.616074,-0.018555,-0.564941,0.865723,1.5761909057217556,-33.40428787061201,92.77111872516517,0.6634999513626099,-0.2077661007642746,-0.19896717369556427,0.6906607151031494
1623561c-f008-4531-86f8-a372810430ac,fed1223c-9041-4484-928e-e96c55bc8658,1761218857725236076,2.23732,0.955582,0.860214,-0.009766,-0.556641,0.855469,1.582966735941701,-33.380948802720575,92.74656943181976,0.6636980772018433,-0.20771554112434387,-0.19874165952205658,0.6905505061149597
1623561c-f008-4531-86f8-a372810430ac,fed1223c-9041-4484-928e-e96c55bc8658,1761218857733217076,2.479553,0.774384,1.409531,-0.029297,-0.554688,0.871094,1.596796895897185,-33.353588373978475,92.75726077433447,0.6637026071548462,-0.20762325823307037,-0.19851472973823547,0.6906391978263855
1623561c-f008-4531-86f8-a372810430ac,fed1223c-9041-4484-928e-e96c55bc8658,1761218857743901076,2.540588,0.713348,1.714706,-0.010254,-0.55957,0.867187,1.6057136899735343,-33.32725978602876,92.75182612752926,0.6637940406799316,-0.20753523707389832,-0.1982932835817337,0.6906414031982422
1623561c-f008-4531-86f8-a372810430ac,fed1223c-9041-4484-928e-e96c55bc8658,1761218857754585076,2.540588,0.896454,1.409531,-0.012207,-0.56543,0.875977,1.620888626410275,-33.30186979674347,92.7158240476746,0.6640788912773132,-0.20754310488700867,-0.1979859173297882,0.6904534101486206
1623561c-f008-4531-86f8-a372810430ac,fed1223c-9041-4484-928e-e96c55bc8658,1761218857765269076,2.477646,0.955582,1.470566,-0.035156,-0.556152,0.874512,1.6379768311888332,-33.275110532980506,92.68842760628735,0.6643173098564148,-0.2075396329164505,-0.1976747214794159,0.6903142333030701
1623561c-f008-4531-86f8-a372810430ac,fed1223c-9041-4484-928e-e96c55bc8658,1761218857775948076,2.601624,1.079559,1.531601,-0.014648,-0.555176,0.864258,1.6665184973196954,-33.2187297103521,92.63692525209169,0.6647689342498779,-0.2074761986732483,-0.1970735490322113,0.6900704503059387
1623561c-f008-4531-86f8-a372810430ac,fed1223c-9041-4484-928e-e96c55bc8658,1761218857786628076,2.174377,0.713348,1.714706,-0.02002,-0.55127,0.862793,1.6777867385113978,-33.19557381325629,92.6152541278017,0.6649566292762756,-0.20744813978672028,-0.19682833552360535,0.6899681091308594
1623561c-f008-4531-86f8-a372810430ac,fed1223c-9041-4484-928e-e96c55bc8658,1761218857797308076,1.991272,1.079559,1.348495,-0.012207,-0.555176,0.859375,1.6897223909121537,-33.17397953632003,92.60068376000108,0.66510009765625,-0.20742084085941315,-0.19660158455371857,0.689902663230896
1623561c-f008-4531-86f8-a372810430ac,fed1223c-9041-4484-928e-e96c55bc8658,1761218857805304076,1.625061,1.20163,0.432968,-0.016113,-0.549805,0.855957,1.6989196665452828,-33.156095415080514,92.59390235259399,0.6651858687400818,-0.20738498866558075,-0.1964273452758789,0.68988037109375
1623561c-f008-4531-86f8-a372810430ac,fed1223c-9041-4484-928e-e96c55bc8658,1761218857813299076,1.440048,1.264572,0.249863,-0.013184,-0.5625,0.85498,1.7074929194350843,-33.141209141995134,92.56832214254715,0.6653788089752197,-0.2073947787284851,-0.19624090194702148,0.6897444725036621
1623561c-f008-4531-86f8-a372810430ac,fed1223c-9041-4484-928e-e96c55bc8658,1761218857821294076,0.829697,1.138687,-0.299454,-0.026367,-0.559082,0.862793,1.7204079631375213,-33.126711505595814,92.52496289282152,0.6656854748725891,-0.2074633091688156,-0.195999413728714,0.6894965171813965
1623561c-f008-4531-86f8-a372810430ac,fed1223c-9041-4484-928e-e96c55bc8658,1761218857829289076,0.709534,0.835419,-0.787735,-0.016602,-0.557617,0.848633,1.7212781387223683,-33.121272365769954,92.53733081718192,0.6656213998794556,-0.2074160873889923,-0.19598373770713806,0.689577043056488
1623561c-f008-4531-86f8-a372810430ac,fed1223c-9041-4484-928e-e96c55bc8658,1761218857839938076,0.463486,0.776291,-0.84877,-0.014648,-0.564453,0.858887,1.7176670680086739,-33.12109091398097,92.5294792598268,0.6656627655029297,-0.20740672945976257,-0.19598940014839172,0.6895383596420288
1623561c-f008-4531-86f8-a372810430ac,fed1223c-9041-4484-928e-e96c55bc8658,1761218857850587076,0.343323,0.530243,-1.031876,-0.039062,-0.566895,0.867676,1.7202628344060957,-33.12031775899946,92.47576540525964,0.6659916043281555,-0.20750972628593445,-0.19587238132953644,0.689223051071167
1623561c-f008-4531-86f8-a372810430ac,fed1223c-9041-4484-928e-e96c55bc8658,1761218857861236076,0.160217,0.591278,-1.459122,-0.024902,-0.569336,0.863281,1.7139980352589592,-33.119187979915424,92.41059284642597,0.6663746237754822,-0.2075769305229187,-0.19578391313552856,0.6888576149940491
1623561c-f008-4531-86f8-a372810430ac,fed1223c-9041-4484-928e-e96c55bc8658,1761218857871953076,0.160217,0.286102,-1.398087,-0.041504,-0.544922,0.863769,1.7067901307928444,-33.11101279360281,92.29379876744518,0.6670774221420288,-0.2076859325170517,-0.19556468725204468,0.6882064938545227
1623561c-f008-4531-86f8-a372810430ac,fed1223c-9041-4484-928e-e96c55bc8658,1761218857882670076,0.404358,-0.141144,-1.581192,-0.041016,-0.547852,0.859375,1.7030362558056065,-33.10083487120301,92.25118935636792,0.6673434972763062,-0.20767737925052643,-0.19544768333435059,0.6879842877388
1623561c-f008-4531-86f8-a372810430ac,fed1223c-9041-4484-928e-e96c55bc8658,1761218857893387076,0.463486,-0.509262,-0.97084,-0.021484,-0.557129,0.866211,1.7037749326118512,-33.09600364893318,92.22877513227634,0.6674872040748596,-0.20769213140010834,-0.1953735053539276,0.6878615617752075
1623561c-f008-4531-86f8-a372810430ac,fed1223c-9041-4484-928e-e96c55bc8658,1761218857901382076,-0.083923,-0.812531,-0.116348,-0.036621,-0.557617,0.853516,1.7088681622484618,-33.09528286252967,92.23155976862168,0.6674803495407104,-0.20771381258964539,-0.19534452259540558,0.6878698468208313
1623561c-f008-4531-86f8-a372810430ac,fed1223c-9041-4484-928e-e96c55bc8658,1761218857909376076,-0.083923,-0.44632,0.494003,-0.032715,-0.54541,0.859863,1.713393639493857,-33.09315626180385,92.2109211077637,0.6676154136657715,-0.2077638804912567,-0.19526787102222443,0.6877453923225403
1623561c-f008-4531-86f8-a372810430ac,fed1223c-9041-4484-928e-e96c55bc8658,1761218857917370076,-0.328064,-0.934601,1.104355,-0.029785,-0.5625,0.853516,1.7174470346820625,-33.09481531725057,92.14784386162744,0.6679980754852295,-0.20790521800518036,-0.19513988494873047,0.6873673796653748
1623561c-f008-4531-86f8-a372810430ac,fed1223c-9041-4484-928e-e96c55bc8658,1761218857925364076,-0.205994,-1.056671,1.409531,-0.024414,-0.554688,0.855957,1.7189552140505993,-33.093443146477746,92.1848991633876,0.6677805781364441,-0.20784324407577515,-0.19519001245498657,0.6875831484794617
1623561c-f008-4531-86f8-a372810430ac,fed1223c-9041-4484-928e-e96c55bc8658,1761218857936001076,-0.144958,-1.117706,2.202988,-0.035645,-0.549805,0.870117,1.72261905524038,-33.092860069067754,92.21294526006453,0.6676194667816162,-0.2078140825033188,-0.19521600008010864,0.6877410411834717
1623561c-f008-4531-86f8-a372810430ac,fed1223c-9041-4484-928e-e96c55bc8658,1761218857946638076,-0.511169,-0.873566,2.569199,-0.02002,-0.554199,0.871094,1.725562832166998,-33.08901462285177,92.20584821587272,0.6676733493804932,-0.20782162249088287,-0.19516269862651825,0.6877016425132751
1623561c-f008-4531-86f8-a372810430ac,fed1223c-9041-4484-928e-e96c55bc8658,1761218857957275076,-0.207901,-0.688553,2.93541,-0.031738,-0.568848,0.868164,1.7376483578230941,-33.09159034039845,92.19069826882651,0.6677806377410889,-0.20793482661247253,-0.19508038461208344,0.6875865459442139
1623561c-f008-4531-86f8-a372810430ac,fed1223c-9041-4484-928e-e96c55bc8658,1761218857967954076,-0.328064,-0.873566,3.118515,-0.022461,-0.561523,0.858887,1.7426050323705438,-33.093227537070064,92.15519711649381,0.6679993867874146,-0.2080344408750534,-0.19499696791172028,0.6873675584793091
1623561c-f008-4531-86f8-a372810430ac,fed1223c-9041-4484-928e-e96c55bc8658,1761218857978633076,0.038147,-0.263214,2.813339,-0.024902,-0.556641,0.871582,1.7467536087488664,-33.08931890790316,92.18654783998461,0.6678247451782227,-0.20798341929912567,-0.19500604271888733,0.6875500679016113
1623561c-f008-4531-86f8-a372810430ac,fed1223c-9041-4484-928e-e96c55bc8658,1761218857989312076,-0.144958,0.102997,2.874374,0.004395,-0.556641,0.867676,1.749605957977378,-33.0843994314268,92.1886642503771,0.667824923992157,-0.20796853303909302,-0.1949634850025177,0.6875664591789246
1623561c-f008-4531-86f8-a372810430ac,fed1223c-9041-4484-928e-e96c55bc8658,1761218857997297076,0.221252,-0.019073,2.508163,-0.01416,-0.557617,0.878418,1.7678929603950713,-33.069277941658754,92.16951230390269,0.6679955720901489,-0.20802348852157593,-0.19473060965538025,0.687450110912323
1623561c-f008-4531-86f8-a372810430ac,fed1223c-9041-4484-928e-e96c55bc8658,1761218858005283076,-0.083923,-0.080109,2.202988,-0.006836,-0.558594,0.875488,1.7728799718474129,-33.06251695133671,92.18327158160055,0.6679325103759766,-0.20799098908901215,-0.19468559324741364,0.687533974647522
1623561c-f008-4531-86f8-a372810430ac,fed1223c-9041-4484-928e-e96c55bc8658,1761218858013269076,0.28038,-0.326157,2.202988,-0.020508,-0.559082,0.861328,1.7775174586496734,-33.05794625767438,92.13192024584271,0.6682558655738831,-0.20807963609695435,-0.1945376694202423,0.6872346997261047
1623561c-f008-4531-86f8-a372810430ac,fed1223c-9041-4484-928e-e96c55bc8658,1761218858021255076,0.038147,-0.44632,1.958847,-0.010254,-0.555664,0.860352,1.7766942723710868,-33.056482089154045,92.0908722650461,0.6685029864311218,-0.20813590288162231,-0.19445906579494476,0.6869995594024658
1623561c-f008-4531-86f8-a372810430ac,fed1223c-9041-4484-928e-e96c55bc8658,1761218858029257076,-0.144958,-0.56839,1.409531,-0.016602,-0.5625,0.86084,1.7743133784786969,-33.0563239350674,92.07213539268874,0.6686115264892578,-0.20815250277519226,-0.19443796575069427,0.6868948936462402
1623561c-f008-4531-86f8-a372810430ac,fed1223c-9041-4484-928e-e96c55bc8658,1761218858037259076,-0.572205,-0.263214,1.28746,-0.003418,-0.552246,0.869629,1.7662507385303778,-33.05680167930507,92.05003310538527,0.6687295436859131,-0.20814445614814758,-0.19444775581359863,0.6867796182632446
1623561c-f008-4531-86f8-a372810430ac,fed1223c-9041-4484-928e-e96c55bc8658,1761218858045261076,-0.696182,-0.326157,1.104355,-0.014648,-0.560547,0.850098,1.7663924268921933,-33.05997146729581,92.02870147294618,0.6688524484634399,-0.20819982886314392,-0.19442734122276306,0.6866489052772522
1623561c-f008-4531-86f8-a372810430ac,fed1223c-9041-4484-928e-e96c55bc8658,1761218858053263076,-0.938416,0.286102,0.799179,-0.005859,-0.544922,0.858398,1.7578737254808716,-33.05537584508978,91.9926614606125,0.6690614223480225,-0.20818334817886353,-0.19438381493091583,0.6864626407623291
1623561c-f008-4531-86f8-a372810430ac,fed1223c-9041-4484-928e-e96c55bc8658,1761218858063936076,-1.184464,0.22316,0.738144,-0.022949,-0.555176,0.855957,1.7554057570792327,-33.06138008343271,91.9575063172944,0.6692579984664917,-0.20826293528079987,-0.19437062740325928,0.6862505674362183
1623561c-f008-4531-86f8-a372810430ac,fed1223c-9041-4484-928e-e96c55bc8658,1761218858074609076,-1.363754,0.833511,0.249863,-0.017578,-0.554199,0.854004,1.7565530759729988,-33.07556888610714,91.90903172130369,0.669526994228363,-0.20843413472175598,-0.19436149299144745,0.6859387159347534
1623561c-f008-4531-86f8-a372810430ac,fed1223c-9041-4484-928e-e96c55bc8658,1761218858085282076,-1.670837,1.079559,0.127792,-0.006836,-0.552246,0.851562,1.7561803059964896,-33.08890616321827,91.84007920905901,0.6699171662330627,-0.20862606167793274,-0.1943187117576599,0.6855114102363586
1623561c-f008-4531-86f8-a372810430ac,fed1223c-9041-4484-928e-e96c55bc8658,1761218858095955076,-1.914978,1.811981,-0.787735,-0.014648,-0.566406,0.855957,1.7570800652752765,-33.10859905861887,91.81139669980004,0.670058012008667,-0.20879416167736053,-0.1943800449371338,0.685305118560791
1623561c-f008-4531-86f8-a372810430ac,fed1223c-9041-4484-928e-e96c55bc8658,1761218858106630076,-2.161026,1.688004,-0.909805,-0.015137,-0.566895,0.869629,1.7607984563540704,-33.12577928601787,91.84379213477429,0.6698424220085144,-0.20886091887950897,-0.1945210099220276,0.6854555606842041
1623561c-f008-4531-86f8-a372810430ac,fed1223c-9041-4484-928e-e96c55bc8658,1761218858117305076,-1.977921,1.935959,-1.276016,-0.022949,-0.556641,0.874512,1.7676492530121037,-33.13848003364871,91.84794824908091,0.6698083877563477,-0.2089684009552002,-0.19456519186496735,0.6854434609413147
1623561c-f008-4531-86f8-a372810430ac,fed1223c-9041-4484-928e-e96c55bc8658,1761218858127933076,-1.85585,1.935959,-1.703262,-0.025391,-0.559082,0.876465,1.7770760523357387,-33.16627692147831,91.77075299551956,0.6702404022216797,-0.20931681990623474,-0.19453687965869904,0.6849226951599121
1623561c-f008-4531-86f8-a372810430ac,fed1223c-9041-4484-928e-e96c55bc8658,1761218858138560076,-1.548767,1.811981,-1.886368,-0.045898,-0.557129,0.861328,1.7876306433934581,-33.17894017780554,91.71508245481542,0.6705701947212219,-0.209547758102417,-0.19444973766803741,0.6845539212226868
1623561c-f008-4531-86f8-a372810430ac,fed1223c-9041-4484-928e-e96c55bc8658,1761218858149187076,-1.304626,1.934052,-1.825333,-0.021973,-0.54834,0.86084,1.7916425980383952,-33.185511761449064,91.64348179136482,0.6709938049316406,-0.20973128080368042,-0.19433486461639404,0.6841151118278503
1623561c-f008-4531-86f8-a372810430ac,fed1223c-9041-4484-928e-e96c55bc8658,1761218858157204076,-1.243591,1.3237,-2.069473,-0.023926,-0.547852,0.867676,1.7945362385779289,-33.19068213500238,91.55562610468635,0.6715145111083984,-0.2099274843931198,-0.1941881775856018,0.6835854649543762
1623561c-f008-4531-86f8-a372810430ac,fed1223c-9041-4484-928e-e96c55bc8658,1761218858165219076,-1.121521,0.896454,-1.825333,-0.033691,-0.562012,0.874512,1.7962399903609934,-33.198233290832455,91.501068450055,0.6718303561210632,-0.21007393300533295,-0.19412365555763245,0.6832483410835266
1623561c-f008-4531-86f8-a372810430ac,fed1223c-9041-4484-928e-e96c55bc8658,1761218858173234076,-1.487732,0.774384,-1.520157,-0.04541,-0.555176,0.872559,1.8017156166989348,-33.20141368239315,91.4962181430931,0.671863317489624,-0.21013326942920685,-0.19410179555416107,0.6832038760185242
1623561c-f008-4531-86f8-a372810430ac,fed1223c-9041-4484-928e-e96c55bc8658,1761218858181249076,-1.243591,0.530243,-0.909805,-0.036621,-0.554199,0.853516,1.804351890822915,-33.21270557450436,91.45499217498492,0.6720949411392212,-0.21028439700603485,-0.19407863914966583,0.6829360723495483
1623561c-f008-4531-86f8-a372810430ac,fed1223c-9041-4484-928e-e96c55bc8658,1761218858191910076,-1.182556,0.591278,-0.665665,-0.035645,-0.551758,0.875,1.809347493331803,-33.21950303950965,91.44226130283465,0.6721680760383606,-0.21037521958351135,-0.1940668523311615,0.6828394532203674
1623561c-f008-4531-86f8-a372810430ac,fed1223c-9041-4484-928e-e96c55bc8658,1761218858202571076,-1.548767,0.164032,-0.543594,-0.036621,-0.560059,0.867187,1.8157853617341262,-33.23180761239232,91.47248631479313,0.6719785928726196,-0.21043385565280914,-0.19415859878063202,0.6829817891120911
1623561c-f008-4531-86f8-a372810430ac,fed1223c-9041-4484-928e-e96c55bc8658,1761218858213232076,-1.670837,0.102997,0.127792,-0.036621,-0.557617,0.857422,1.820181462910376,-33.242318296304724,91.42546818763161,0.672248899936676,-0.21060074865818024,-0.19410964846611023,0.68267822265625
1623561c-f008-4531-86f8-a372810430ac,fed1223c-9041-4484-928e-e96c55bc8658,1761218858221240076,-1.792908,0.225067,0.371933,-0.025391,-0.548828,0.86084,1.8317825667634258,-33.26217574413063,91.29355377988286,0.6730211973190308,-0.21100860834121704,-0.19391821324825287,0.6818451881408691
1623561c-f008-4531-86f8-a372810430ac,fed1223c-9041-4484-928e-e96c55bc8658,1761218858229249076,-1.792908,-0.080109,0.860214,-0.030273,-0.545898,0.876953,1.8431927664378291,-33.26721643849622,91.25225734584654,0.6732778549194336,-0.21117566525936127,-0.19380538165569305,0.6815721392631531
1623561c-f008-4531-86f8-a372810430ac,fed1223c-9041-4484-928e-e96c55bc8658,1761218858237258076,-1.363754,-0.509262,1.531601,-0.05127,-0.547852,0.868652,1.8544107233651148,-33.275298070852074,91.24280149071981,0.6733397245407104,-0.2113053947687149,-0.19377055764198303,0.6814807057380676
1623561c-f008-4531-86f8-a372810430ac,fed1223c-9041-4484-928e-e96c55bc8658,1761218858245267076,-1.365662,-0.629425,1.836777,-0.034668,-0.558594,0.859375,1.8613493008099915,-33.285486356560185,91.25714072968465,0.673249363899231,-0.2113817036151886,-0.1938174068927765,0.6815329194068909
